Subject,Session,SessionDate,SessionStartDateTimeUtc,SessionTime,StudioVersion,testEnd.DEVICE,testInstruction.DEVICE,Block,counterBalance,counterBalance.Cycle,counterBalance.Sample,Procedure[Block],Trial,consonant,isHighFreq,isTarget,Perception.DEVICE[Trial],Perception.Duration[Trial],Perception.OffsetTime[Trial],Perception.OnsetTime[Trial],Perception.RESP[Trial],Perception.RT[Trial],Perception.RTTime[Trial],Procedure[Trial],Production.DEVICE[Trial],Recording.Filename[Trial],Running[Trial],Stimuli[Trial],stressPattern,syllStr,targetWord,prodResp,isCorrect,sub_acc,wrd_acc,targetDUR,realRT,sub_rt,wrd_rt
75,1,4/29/19,4/29/19 18:31,11:31:16,3.0.3.43,SRBOX,SRBOX,18,3,2,1,counterBalance3,1,v,n,y,SRBOX,3000,522198,520940,1,1246,522186,Procedure1,SRBOX,./recording/75_daɫvəɫ.wav,list3,daɫvəɫ,sw,cvc,doll,y,1,0.6125,0.560606061,0.440334408,805.665592,805.665592,805.665592
75,1,4/29/19,4/29/19 18:31,11:31:16,3.0.3.43,SRBOX,SRBOX,18,3,2,1,counterBalance3,9,p,y,y,SRBOX,3000,551273,548273,,0,0,Procedure1,,,list3,skælpəb,sw,cvcc,scalp,n,0,0.6125,0.727272727,0.610340124,-610.340124,-610.340124,-610.340124
75,1,4/29/19,4/29/19 18:31,11:31:16,3.0.3.43,SRBOX,SRBOX,18,3,2,1,counterBalance3,10,s,y,y,SRBOX,3000,552828,551373,1,1446,552819,Procedure1,Keyboard,./recording/75_tʃænsuf.wav,list3,tʃænsuf,ss,cvcc,chance,y,1,0.6125,0.636363636,0.514761905,931.238095,931.238095,931.238095
75,1,4/29/19,4/29/19 18:31,11:31:16,3.0.3.43,SRBOX,SRBOX,18,3,2,1,counterBalance3,15,ch,n,y,SRBOX,3000,573590,570590,,0,0,Procedure1,,,list3,tɛntʃəm,sw,cvc,ten,n,0,0.6125,0.5,0.370660687,-370.660687,-370.660687,-370.660687
75,1,4/29/19,4/29/19 18:31,11:31:16,3.0.3.43,SRBOX,SRBOX,18,3,2,1,counterBalance3,16,th,n,y,SRBOX,3000,574648,573673,1,971,574644,Procedure1,SRBOX,./recording/75_dɛpθəm.wav,list3,dɛpθəm,sw,cvcc,depth,y,1,0.6125,0.818181818,0.130570913,840.429087,840.429087,840.429087
75,1,4/29/19,4/29/19 18:31,11:31:16,3.0.3.43,SRBOX,SRBOX,18,3,2,1,counterBalance3,19,th,n,y,SRBOX,3000,588806,585806,,0,0,Procedure1,,,list3,wɪdθum,ss,cvcc,width,n,0,0.6125,0.424242424,0.446770289,-446.770289,-446.770289,-446.770289
75,1,4/29/19,4/29/19 18:31,11:31:16,3.0.3.43,SRBOX,SRBOX,18,3,2,1,counterBalance3,20,k,y,y,SRBOX,3000,590198,588906,1,1285,590191,Procedure1,SRBOX,./recording/75_tʌskɪv.wav,list3,tʌskɪv,ss,cvcc,tusk,y,1,0.6125,0.681818182,0.664977319,620.022681,620.022681,620.022681
75,1,4/29/19,4/29/19 18:31,11:31:16,3.0.3.43,SRBOX,SRBOX,18,3,2,1,counterBalance3,26,ch,n,y,SRBOX,3000,612765,611890,1,856,612746,Procedure1,SRBOX,./recording/75_kɹʌntʃəθ.wav,list3,kɹʌntʃəθ,sw,cvcc,crunch,y,1,0.6125,0.757575758,0.355433817,500.566183,500.566183,500.566183
75,1,4/29/19,4/29/19 18:31,11:31:16,3.0.3.43,SRBOX,SRBOX,18,3,2,1,counterBalance3,27,dz,n,y,SRBOX,3000,617078,616006,1,1065,617071,Procedure1,SRBOX,./recording/75_laʊndʒət.wav,list3,laʊndʒət,sw,cvcc,lounge,y,1,0.6125,0.787878788,0.504859099,560.140901,560.140901,560.140901
75,1,4/29/19,4/29/19 18:31,11:31:16,3.0.3.43,SRBOX,SRBOX,18,3,2,1,counterBalance3,29,ch,n,y,SRBOX,3000,624378,623406,1,956,624362,Procedure1,SRBOX,./recording/75_sʌntʃɔb.wav,list3,sʌntʃɔb,ss,cvc,sun,y,1,0.6125,0.863636364,0.456141499,499.858501,499.858501,499.858501
75,1,4/29/19,4/29/19 18:31,11:31:16,3.0.3.43,SRBOX,SRBOX,18,3,2,1,counterBalance3,30,ch,n,y,SRBOX,3000,628758,627606,1,1147,628753,Procedure1,SRBOX,./recording/75_lʌntʃɔb.wav,list3,lʌntʃɔb,ss,cvcc,lunch,y,1,0.6125,0.696969697,0.448836225,698.163775,698.163775,698.163775
75,1,4/29/19,4/29/19 18:31,11:31:16,3.0.3.43,SRBOX,SRBOX,18,3,2,1,counterBalance3,31,dz,n,y,SRBOX,3000,634990,631990,,0,0,Procedure1,,,list3,fɹɪndʒup,ss,cvcc,fringe,n,0,0.6125,0.393939394,0.471448869,-471.448869,-471.448869,-471.448869
75,1,4/29/19,4/29/19 18:31,11:31:16,3.0.3.43,SRBOX,SRBOX,18,3,2,1,counterBalance3,34,ch,n,y,SRBOX,3000,644673,641673,,0,0,Procedure1,,,list3,blæntʃɛb,ss,cvcc,blanch,n,0,0.6125,0.136363636,0.301386207,-301.386207,-301.386207,-301.386207
75,1,4/29/19,4/29/19 18:31,11:31:16,3.0.3.43,SRBOX,SRBOX,18,3,2,1,counterBalance3,40,v,n,y,SRBOX,3000,663406,660406,,0,0,Procedure1,,,list3,saɫvəɫ,sw,cvcc,solve,n,0,0.6125,0.272727273,0.480247936,-480.247936,-480.247936,-480.247936
75,1,4/29/19,4/29/19 18:31,11:31:16,3.0.3.43,SRBOX,SRBOX,18,3,2,1,counterBalance3,41,dz,n,y,SRBOX,3000,666489,663489,,0,0,Procedure1,,,list3,bʌnʤam,ss,cvc,bun,n,0,0.6125,0.196969697,0.533254863,-533.254863,-533.254863,-533.254863
75,1,4/29/19,4/29/19 18:31,11:31:16,3.0.3.43,SRBOX,SRBOX,18,3,2,1,counterBalance3,42,k,y,y,SRBOX,3000,667403,666589,1,814,667403,Procedure1,Keyboard,./recording/75_kɪskɛl.wav,list3,kɪskɛl,ss,cvc,kiss,y,1,0.6125,0.909090909,0.41178617,402.21383,402.21383,402.21383
75,1,4/29/19,4/29/19 18:31,11:31:16,3.0.3.43,SRBOX,SRBOX,18,3,2,1,counterBalance3,43,k,y,y,SRBOX,3000,671731,670706,1,1024,671730,Procedure1,SRBOX,./recording/75_plʌskiv.wav,list3,plʌskiv,ss,cvc,plus,y,1,0.6125,0.666666667,0.602286633,421.713367,421.713367,421.713367
75,1,4/29/19,4/29/19 18:31,11:31:16,3.0.3.43,SRBOX,SRBOX,18,3,2,1,counterBalance3,46,p,y,y,SRBOX,3000,682428,681106,1,1321,682427,Procedure1,SRBOX,./recording/75_nʌmpædʒ.wav,list3,nʌmpædʒ,ss,cvc,numb,y,1,0.6125,0.53030303,0.498357651,822.642349,822.642349,822.642349
75,1,4/29/19,4/29/19 18:31,11:31:16,3.0.3.43,SRBOX,SRBOX,18,3,2,1,counterBalance3,47,dz,n,y,SRBOX,3000,688639,685639,,0,0,Procedure1,,,list3,gɹʌnʤəm,sw,cvcc,grunge,n,0,0.6125,0.454545455,0.396664719,-396.664719,-396.664719,-396.664719
75,1,4/29/19,4/29/19 18:31,11:31:16,3.0.3.43,SRBOX,SRBOX,18,3,2,1,counterBalance3,48,th,n,y,SRBOX,3000,690127,688739,1,1376,690115,Procedure1,SRBOX,./recording/75_kɪdθum.wav,list3,kɪdθum,ss,cvc,kid,y,1,0.6125,0.863636364,0.395836814,980.163186,980.163186,980.163186
75,1,4/29/19,4/29/19 18:31,11:31:16,3.0.3.43,SRBOX,SRBOX,18,3,2,1,counterBalance3,50,th,n,y,SRBOX,3000,697470,696473,1,997,697470,Procedure1,SRBOX,./recording/75_fɪfθaʊm.wav,list3,fɪfθaʊm,ss,cvcc,fifth,y,1,0.6125,0.560606061,0.527940664,469.059336,469.059336,469.059336
75,1,4/29/19,4/29/19 18:31,11:31:16,3.0.3.43,SRBOX,SRBOX,18,3,2,1,counterBalance3,54,th,n,y,SRBOX,3000,711139,709906,1,1232,711138,Procedure1,Keyboard,./recording/75_stɛlθaum.wav,list3,stɛlθaum,ss,cvcc,stealth,y,1,0.6125,0.5,0.555694706,676.305294,676.305294,676.305294
75,1,4/29/19,4/29/19 18:31,11:31:16,3.0.3.43,SRBOX,SRBOX,18,3,2,1,counterBalance3,62,p,y,y,SRBOX,3000,739638,738423,1,1205,739628,Procedure1,Keyboard,./recording/75_skʌɫpən.wav,list3,skʌɫpən,sw,cvc,skull,y,1,0.6125,0.5,0.438906803,766.093197,766.093197,766.093197
75,1,4/29/19,4/29/19 18:31,11:31:16,3.0.3.43,SRBOX,SRBOX,18,3,2,1,counterBalance3,64,k,y,y,SRBOX,3000,748935,747489,1,1445,748934,Procedure1,SRBOX,./recording/75_fɪɫkəθ.wav,list3,fɪɫkəθ,sw,cvc,fill,y,1,0.6125,0.318181818,0.379301806,1065.698194,1065.698194,1065.698194
75,1,4/29/19,4/29/19 18:31,11:31:16,3.0.3.43,SRBOX,SRBOX,18,3,2,1,counterBalance3,68,k,y,y,SRBOX,3000,762528,761373,1,1151,762524,Procedure1,SRBOX,./recording/75_gæskəʤ.wav,list3,gæskəʤ,sw,cvc,gas,y,1,0.6125,0.848484848,0.385228403,765.771597,765.771597,765.771597
75,1,4/29/19,4/29/19 18:31,11:31:16,3.0.3.43,SRBOX,SRBOX,18,3,2,1,counterBalance3,70,ch,n,y,SRBOX,3000,769908,768839,1,1064,769903,Procedure1,Keyboard,./recording/75_gɔntʃeθ.wav,list3,gɔntʃeθ,ss,cvc,gone,y,1,0.6125,0.575757576,0.399532384,664.467616,664.467616,664.467616
75,1,4/29/19,4/29/19 18:31,11:31:16,3.0.3.43,SRBOX,SRBOX,18,3,2,1,counterBalance3,71,k,y,y,SRBOX,3000,774372,773123,1,1242,774365,Procedure1,SRBOX,./recording/75_tɹʌŋkəm.wav,list3,tɹʌŋkəm,sw,cvcc,trunk,y,1,0.6125,0.757575758,0.446801259,795.198741,795.198741,795.198741
75,1,4/29/19,4/29/19 18:31,11:31:16,3.0.3.43,SRBOX,SRBOX,18,3,2,1,counterBalance3,72,ch,n,y,SRBOX,3000,778638,777589,1,1045,778634,Procedure1,Keyboard,./recording/75_plæntʃɛb.wav,list3,plæntʃɛb,ss,cvcc,plant,y,1,0.6125,0.318181818,0.491713802,553.286198,553.286198,553.286198
75,1,4/29/19,4/29/19 18:31,11:31:16,3.0.3.43,SRBOX,SRBOX,18,3,2,1,counterBalance3,73,p,y,y,SRBOX,3000,784856,781856,,0,0,Procedure1,,,list3,tʃæmpoʊʃ,ss,cvcc,champ,n,0,0.6125,0.5,0.598037684,-598.037684,-598.037684,-598.037684
75,1,4/29/19,4/29/19 18:31,11:31:16,3.0.3.43,SRBOX,SRBOX,18,3,2,1,counterBalance3,75,dz,n,y,SRBOX,3000,789258,788039,1,1214,789253,Procedure1,Keyboard,./recording/75_lʌndʒeɪb.wav,list3,lʌndʒeɪb,ss,cvcc,lunge,y,1,0.6125,0.621212121,0.457308404,756.691596,756.691596,756.691596
75,1,4/29/19,4/29/19 18:31,11:31:16,3.0.3.43,SRBOX,SRBOX,18,3,2,1,counterBalance3,76,k,y,y,SRBOX,3000,793759,792489,1,1270,793759,Procedure1,SRBOX,./recording/75_glæskɛθ.wav,list3,glæskɛθ,ss,cvc,glass,y,1,0.6125,0.893939394,0.630500926,639.499074,639.499074,639.499074
75,1,4/29/19,4/29/19 18:31,11:31:16,3.0.3.43,SRBOX,SRBOX,18,3,2,1,counterBalance3,78,sh,n,y,SRBOX,3000,803039,800039,,0,0,Procedure1,,,list3,hɔɹʃəb,sw,cvcc,harsh,n,0,0.6125,0.575757576,0.463977829,-463.977829,-463.977829,-463.977829
75,1,4/29/19,4/29/19 18:31,11:31:16,3.0.3.43,SRBOX,SRBOX,18,3,2,1,counterBalance3,80,p,y,y,SRBOX,3000,809223,806223,,0,0,Procedure1,,,list3,pʌmpaʊdʒ,ss,cvcc,pump,n,0,0.6125,0.636363636,0.448161285,-448.161285,-448.161285,-448.161285
75,1,4/29/19,4/29/19 18:31,11:31:16,3.0.3.43,SRBOX,SRBOX,18,3,2,1,counterBalance3,82,k,y,y,SRBOX,3000,814038,812406,1,1625,814031,Procedure1,SRBOX,./recording/75_fʌskəʤ.wav,list3,fʌskəʤ,sw,cvc,fuss,y,1,0.6125,0.424242424,0.463196101,1161.803899,1161.803899,1161.803899
75,1,4/29/19,4/29/19 18:31,11:31:16,3.0.3.43,SRBOX,SRBOX,18,3,2,1,counterBalance3,86,k,y,y,SRBOX,3000,828978,827856,1,1112,828968,Procedure1,SRBOX,./recording/75_tæskɛθ.wav,list3,tæskɛθ,ss,cvcc,task,y,1,0.6125,0.833333333,0.525337475,586.662525,586.662525,586.662525
75,1,4/29/19,4/29/19 18:31,11:31:16,3.0.3.43,SRBOX,SRBOX,18,3,2,1,counterBalance3,89,dz,n,y,SRBOX,3000,840408,838356,1,2038,840394,Procedure1,SRBOX,./recording/75_pɪnʤəp.wav,list3,pɪnʤəp,sw,cvc,pin,y,1,0.6125,0.712121212,0.381340246,1656.659754,789.1199176,1656.659754
75,1,4/29/19,4/29/19 18:31,11:31:16,3.0.3.43,SRBOX,SRBOX,18,3,2,1,counterBalance3,96,s,y,y,SRBOX,3000,865156,862156,,0,0,Procedure1,,,list3,ɹɪnsəf,sw,cvcc,rinse,n,0,0.6125,0.606060606,0.465474253,-465.474253,-465.474253,-465.474253
75,1,4/29/19,4/29/19 18:31,11:31:16,3.0.3.43,SRBOX,SRBOX,18,3,2,1,counterBalance3,97,dz,n,y,SRBOX,3000,866427,865239,1,1181,866420,Procedure1,SRBOX,./recording/75_kɹɪnʤeɪp.wav,list3,kɹɪnʤeɪp,ss,cvcc,cringe,y,1,0.6125,0.681818182,0.52148157,659.51843,659.51843,659.51843
75,1,4/29/19,4/29/19 18:31,11:31:16,3.0.3.43,SRBOX,SRBOX,18,3,2,1,counterBalance3,100,k,y,y,SRBOX,3000,879187,877356,1,1824,879180,Procedure1,SRBOX,./recording/75_pɹɛskɛp.wav,list3,pɹɛskɛp,ss,cvc,press,y,1,0.6125,0.636363636,0.478091729,1345.908271,1345.908271,1345.908271
75,1,4/29/19,4/29/19 18:31,11:31:16,3.0.3.43,SRBOX,SRBOX,18,3,2,1,counterBalance3,101,k,y,y,SRBOX,3000,885439,882439,,0,0,Procedure1,,,list3,θæŋkuf,ss,cvcc,thank,n,0,0.6125,0.636363636,0,0,0,0
75,1,4/29/19,4/29/19 18:31,11:31:16,3.0.3.43,SRBOX,SRBOX,18,3,2,1,counterBalance3,102,ch,n,y,SRBOX,3000,888539,885539,,0,0,Procedure1,,,list3,tʌntʃəp,sw,cvc,ton,n,0,0.6125,0.196969697,0.372240634,-372.240634,-372.240634,-372.240634
75,1,4/29/19,4/29/19 18:31,11:31:16,3.0.3.43,SRBOX,SRBOX,18,3,2,1,counterBalance3,104,k,y,y,SRBOX,3000,894723,891723,,0,0,Procedure1,,,list3,gæŋkəf,sw,cvc,gang,n,0,0.6125,0.409090909,0.313871461,-313.871461,-313.871461,-313.871461
75,1,4/29/19,4/29/19 18:31,11:31:16,3.0.3.43,SRBOX,SRBOX,18,3,2,1,counterBalance3,106,k,y,y,SRBOX,3000,899156,897873,1,1281,899154,Procedure1,SRBOX,./recording/75_staɹkəp.wav,list3,staɹkəp,sw,cvc,star,y,1,0.6125,0.727272727,0.48584401,795.15599,795.15599,795.15599
75,1,4/29/19,4/29/19 18:31,11:31:16,3.0.3.43,SRBOX,SRBOX,18,3,2,1,counterBalance3,108,k,y,y,SRBOX,3000,908489,905489,,0,0,Procedure1,,,list3,bʌɫkəθ,sw,cvcc,bulk,n,0,0.6125,0.681818182,0.541645052,-541.645052,-541.645052,-541.645052
75,1,4/29/19,4/29/19 18:31,11:31:16,3.0.3.43,SRBOX,SRBOX,18,3,2,1,counterBalance3,109,th,n,y,SRBOX,3000,911639,908639,,0,0,Procedure1,,,list3,mʌnθəm,sw,cvcc,month,n,0,0.6125,0.515151515,0.42644936,-426.44936,-426.44936,-426.44936
75,1,4/29/19,4/29/19 18:31,11:31:16,3.0.3.43,SRBOX,SRBOX,18,3,2,1,counterBalance3,112,p,y,y,SRBOX,3000,918998,917906,1,1090,918996,Procedure1,SRBOX,./recording/75_lʌmpədʒ.wav,list3,lʌmpədʒ,sw,cvcc,lump,y,1,0.6125,0.772727273,0.396427707,693.572293,693.572293,693.572293
75,1,4/29/19,4/29/19 18:31,11:31:16,3.0.3.43,SRBOX,SRBOX,18,3,2,1,counterBalance3,114,k,y,y,SRBOX,3000,926567,925339,1,1213,926552,Procedure1,SRBOX,./recording/75_mɪɫkəθ.wav,list3,mɪɫkəθ,sw,cvcc,milk,y,1,0.6125,0.939393939,0.445414068,767.585932,767.585932,767.585932
75,1,4/29/19,4/29/19 18:31,11:31:16,3.0.3.43,SRBOX,SRBOX,18,3,2,1,counterBalance3,115,s,y,y,SRBOX,3000,932856,929856,,0,0,Procedure1,,,list3,gʌɫsəm,sw,cvc,gull,n,0,0.6125,0.196969697,0.271428355,-271.428355,-271.428355,-271.428355
75,1,4/29/19,4/29/19 18:31,11:31:16,3.0.3.43,SRBOX,SRBOX,18,3,2,1,counterBalance3,116,dz,n,y,SRBOX,3000,934027,932939,1,1069,934008,Procedure1,SRBOX,./recording/75_taʊnʤɔɪt.wav,list3,taʊnʤɔɪt,ss,cvc,town,y,1,0.6125,0.803030303,0.449299299,619.700701,619.700701,619.700701
75,1,4/29/19,4/29/19 18:31,11:31:16,3.0.3.43,SRBOX,SRBOX,18,3,2,1,counterBalance3,117,k,y,y,SRBOX,3000,940273,937273,,0,0,Procedure1,,,list3,dʌɫkæθ,ss,cvc,dull,n,0,0.6125,0.181818182,0.331808724,-331.808724,-331.808724,-331.808724
75,1,4/29/19,4/29/19 18:31,11:31:16,3.0.3.43,SRBOX,SRBOX,18,3,2,1,counterBalance3,118,k,y,y,SRBOX,3000,941777,940356,1,1409,941765,Procedure1,SRBOX,./recording/75_hʌskəv.wav,list3,hʌskəv,sw,cvcc,husk,y,1,0.6125,0.515151515,0.603452071,805.547929,805.547929,805.547929
75,1,4/29/19,4/29/19 18:31,11:31:16,3.0.3.43,SRBOX,SRBOX,18,3,2,1,counterBalance3,122,p,y,y,SRBOX,3000,958758,956939,1,1803,958742,Procedure1,SRBOX,./recording/75_skʌmpaʊdʒ.wav,list3,skʌmpaʊdʒ,ss,cvc,skum,skump,0,0.6125,0.333333333,0.604285937,1198.714063,789.1199176,1182.960047
75,1,4/29/19,4/29/19 18:31,11:31:16,3.0.3.43,SRBOX,SRBOX,18,3,2,1,counterBalance3,124,s,y,y,SRBOX,3000,966697,965256,1,1440,966696,Procedure1,SRBOX,./recording/75_pʌɫsɔm.wav,list3,pʌɫsɔm,ss,cvcc,pulse,pull,0,0.6125,0.333333333,0.413295194,1026.704806,715.8180867,791.62936
75,1,4/29/19,4/29/19 18:31,11:31:16,3.0.3.43,SRBOX,SRBOX,18,3,2,1,counterBalance3,128,ch,n,y,SRBOX,3000,982165,980406,1,1758,982164,Procedure1,SRBOX,./recording/75_stɔntʃəθ.wav,list3,stɔntʃəθ,sw,cvcc,staunch,y,1,0.6125,0.212121212,0.554073654,1203.926346,715.8180867,1203.926346
75,1,4/29/19,4/29/19 18:31,11:31:16,3.0.3.43,SRBOX,SRBOX,18,3,2,1,counterBalance3,129,sh,n,y,SRBOX,3000,986638,985406,1,1231,986637,Procedure1,SRBOX,./recording/75_skɔɹʃɔb.wav,list3,skɔɹʃɔb,ss,cvc,scar,y,1,0.6125,0.909090909,0.453051312,777.948688,777.948688,777.948688
75,1,4/29/19,4/29/19 18:31,11:31:16,3.0.3.43,SRBOX,SRBOX,18,3,2,1,counterBalance3,133,dz,n,y,SRBOX,3000,1002106,999106,,0,0,Procedure1,,,list3,ʧɪnʤəp,sw,cvc,chin,n,0,0.6125,0.515151515,0.499500178,-499.500178,-499.500178,-499.500178
75,1,4/29/19,4/29/19 18:31,11:31:16,3.0.3.43,SRBOX,SRBOX,18,3,2,1,counterBalance3,135,k,y,y,SRBOX,3000,1006446,1005256,1,1174,1006430,Procedure1,Keyboard,./recording/75_rɪskɛl.wav,list3,rɪskɛl,ss,cvcc,risk,y,1,0.6125,0.787878788,0.441955454,732.044546,732.044546,732.044546
75,1,4/29/19,4/29/19 18:31,11:31:16,3.0.3.43,SRBOX,SRBOX,18,3,2,1,counterBalance3,136,k,y,y,SRBOX,3000,1010817,1009689,1,1111,1010800,Procedure1,Keyboard,./recording/75_daɹkəp.wav,list3,daɹkəp,sw,cvc,dark,y,1,0.6125,0.878787879,0.483409725,627.590275,627.590275,627.590275
75,1,4/29/19,4/29/19 18:31,11:31:16,3.0.3.43,SRBOX,SRBOX,18,3,2,1,counterBalance3,142,th,n,y,SRBOX,3000,1030489,1029489,1,1000,1030489,Procedure1,SRBOX,./recording/75_stɛpθəm.wav,list3,stɛpθəm,sw,cvc,step,y,1,0.6125,0.909090909,0.586941219,413.058781,413.058781,413.058781
75,1,4/29/19,4/29/19 18:31,11:31:16,3.0.3.43,SRBOX,SRBOX,18,3,2,1,counterBalance3,143,p,y,y,SRBOX,3000,1034787,1033673,1,1112,1034785,Procedure1,SRBOX,./recording/75_pʌɫpən.wav,list3,pʌɫpən,sw,cvcc,pulp,y,1,0.6125,0.651515152,0.421217752,690.782248,690.782248,690.782248
75,1,4/29/19,4/29/19 18:31,11:31:16,3.0.3.43,SRBOX,SRBOX,18,3,2,1,counterBalance3,144,ch,n,y,SRBOX,3000,1039181,1038006,1,1168,1039174,Procedure1,SRBOX,./recording/75_fɹɛntʃɔɪb.wav,list3,fɹɛntʃɔɪb,ss,cvcc,french,friend,0,0.6125,0.121212121,0.425364063,742.635937,715.8180867,1225.644106
75,1,4/29/19,4/29/19 18:31,11:31:16,3.0.3.43,SRBOX,SRBOX,18,3,2,1,counterBalance3,145,k,y,y,SRBOX,3000,1045406,1042406,,0,0,Procedure1,,,list3,kʌskɪv,ss,cvc,cuss,n,0,0.6125,0.136363636,0.440452309,-440.452309,-440.452309,-440.452309
75,1,4/29/19,4/29/19 18:31,11:31:16,3.0.3.43,SRBOX,SRBOX,18,3,2,1,counterBalance3,149,k,y,y,SRBOX,3000,1055787,1054739,1,1029,1055768,Procedure1,Keyboard,./recording/75_dɛskəp.wav,list3,dɛskəp,sw,cvcc,desk,y,1,0.6125,0.803030303,0.505215414,523.784586,523.784586,523.784586
75,1,4/29/19,4/29/19 18:31,11:31:16,3.0.3.43,SRBOX,SRBOX,18,3,2,1,counterBalance3,151,ch,n,y,SRBOX,3000,1063317,1062056,1,1259,1063315,Procedure1,Keyboard,./recording/75_bɹʌntʃəp.wav,list3,bɹʌntʃəp,sw,cvcc,brunch,y,1,0.6125,0.272727273,0.354925173,904.074827,904.074827,904.074827
75,1,4/29/19,4/29/19 18:31,11:31:16,3.0.3.43,SRBOX,SRBOX,18,3,2,1,counterBalance3,152,k,y,y,SRBOX,3000,1067890,1066539,1,1351,1067890,Procedure1,SRBOX,./recording/75_dʌskəʤ.wav,list3,dʌskəʤ,sw,cvcc,dusk,y,1,0.6125,0.484848485,0.571603642,779.396358,779.396358,779.396358
75,1,4/29/19,4/29/19 18:31,11:31:16,3.0.3.43,SRBOX,SRBOX,18,3,2,1,counterBalance3,162,p,y,y,SRBOX,3000,1102611,1101373,1,1238,1102611,Procedure1,Keyboard,./recording/75_slæmpoʊʃ.wav,list3,slæmpoʊʃ,ss,cvc,slam,y,1,0.6125,0.560606061,0.508322894,729.677106,729.677106,729.677106
75,1,4/29/19,4/29/19 18:31,11:31:16,3.0.3.43,SRBOX,SRBOX,18,3,2,1,counterBalance3,163,s,y,y,SRBOX,3000,1107676,1105806,1,1855,1107661,Procedure1,SRBOX,./recording/75_kænsuf.wav,list3,kænsuf,ss,cvc,can,y,1,0.6125,0.545454545,0.356400755,1498.599245,789.1199176,1498.599245
75,1,4/29/19,4/29/19 18:31,11:31:16,3.0.3.43,SRBOX,SRBOX,18,3,2,1,counterBalance3,164,th,n,y,SRBOX,3000,1111957,1110889,1,1058,1111947,Procedure1,Keyboard,./recording/75_rʌnθəm.wav,list3,rʌnθəm,sw,cvc,run,y,1,0.6125,0.939393939,0.451263769,606.736231,606.736231,606.736231
75,1,4/29/19,4/29/19 18:31,11:31:16,3.0.3.43,SRBOX,SRBOX,18,3,2,1,counterBalance3,172,dz,n,y,SRBOX,3000,1141556,1138556,,0,0,Procedure1,,,list3,dʌnʤəb,sw,cvc,done,n,0,0.6125,0.424242424,0.30623749,-306.23749,-306.23749,-306.23749
75,1,4/29/19,4/29/19 18:31,11:31:16,3.0.3.43,SRBOX,SRBOX,18,3,2,1,counterBalance3,174,ch,n,y,SRBOX,3000,1146060,1144739,1,1307,1146046,Procedure1,Keyboard,./recording/75_fʌntʃeɪθ.wav,list3,fʌntʃeɪθ,ss,cvc,fun,y,1,0.6125,0.712121212,0.413374576,893.625424,893.625424,893.625424
75,1,4/29/19,4/29/19 18:31,11:31:16,3.0.3.43,SRBOX,SRBOX,18,3,2,1,counterBalance3,175,th,n,y,SRBOX,3000,1152273,1149273,,0,0,Procedure1,,,list3,tɛlθəm,sw,cvc,tell,n,0,0.6125,0.409090909,0.421384398,-421.384398,-421.384398,-421.384398
75,1,4/29/19,4/29/19 18:31,11:31:16,3.0.3.43,SRBOX,SRBOX,18,3,2,1,counterBalance3,176,v,n,y,SRBOX,3000,1155356,1152356,,0,0,Procedure1,,,list3,sɛɫvən,sw,cvc,sell,n,0,0.6125,0.439393939,0.419183035,-419.183035,-419.183035,-419.183035
75,1,4/29/19,4/29/19 18:31,11:31:16,3.0.3.43,SRBOX,SRBOX,18,3,2,1,counterBalance3,178,ch,n,y,SRBOX,3000,1159559,1158539,1,1015,1159554,Procedure1,Keyboard,./recording/75_pɛntʃɔɪb.wav,list3,pɛntʃɔɪb,ss,cvc,pen,y,1,0.6125,0.681818182,0.409303163,605.696837,605.696837,605.696837
75,1,4/29/19,4/29/19 18:31,11:31:16,3.0.3.43,SRBOX,SRBOX,18,3,2,1,counterBalance3,179,p,y,y,SRBOX,3000,1165773,1162773,,0,0,Procedure1,,,list3,pælpəb,sw,cvc,pal,n,0,0.6125,0.075757576,0.356294998,-356.294998,-356.294998,-356.294998
75,1,4/29/19,4/29/19 18:31,11:31:16,3.0.3.43,SRBOX,SRBOX,18,3,2,1,counterBalance3,181,k,y,y,SRBOX,3000,1169907,1168939,1,968,1169907,Procedure1,SRBOX,./recording/75_tʌŋkɛm.wav,list3,tʌŋkɛm,ss,cvc,tongue,y,1,0.6125,0.5,0.403370185,564.629815,564.629815,564.629815
75,1,4/29/19,4/29/19 18:31,11:31:16,3.0.3.43,SRBOX,SRBOX,18,3,2,1,counterBalance3,189,ch,n,y,SRBOX,3000,1197689,1194689,,0,0,Procedure1,,,list3,tɹɛntʃæm,ss,cvcc,trench,n,0,0.6125,0.515151515,0.388604915,-388.604915,-388.604915,-388.604915
75,1,4/29/19,4/29/19 18:31,11:31:16,3.0.3.43,SRBOX,SRBOX,18,3,2,1,counterBalance3,190,th,n,y,SRBOX,3000,1198761,1197756,1,1000,1198756,Procedure1,Keyboard,./recording/75_klɪfθəm.wav,list3,klɪfθəm,sw,cvc,cliff,y,1,0.6125,0.787878788,0.453734318,546.265682,546.265682,546.265682
75,1,4/29/19,4/29/19 18:31,11:31:16,3.0.3.43,SRBOX,SRBOX,18,3,2,1,counterBalance3,192,s,y,y,SRBOX,3000,1205986,1205056,1,930,1205986,Procedure1,SRBOX,./recording/75_tɪnsæf.wav,list3,tɪnsæf,ss,cvc,tin,y,1,0.6125,0.575757576,0.300605426,629.394574,629.394574,629.394574
75,1,4/29/19,4/29/19 18:31,11:31:16,3.0.3.43,SRBOX,SRBOX,18,3,2,1,counterBalance3,194,v,n,y,SRBOX,3000,1215256,1212256,,0,0,Procedure1,,,list3,twɛɫvən,sw,cvcc,twelve,n,0,0.6125,0.863636364,0.481589822,-481.589822,-481.589822,-481.589822
75,1,4/29/19,4/29/19 18:31,11:31:16,3.0.3.43,SRBOX,SRBOX,18,3,2,1,counterBalance3,200,k,y,y,SRBOX,3000,1236139,1233139,,0,0,Procedure1,,,list3,flæskauʤ,ss,cvcc,flask,n,0,0.6125,0.545454545,0.60979712,-609.79712,-609.79712,-609.79712
78,1,9/6/19,9/6/19 18:52,11:52:49,3.0.3.43,SRBOX,SRBOX,18,2,2,1,counterBalance2,1,k,y,y,SRBOX,3000,717291,715552,1,1738,717290,Procedure1,SRBOX,./recording/78_flæskəʤ.wav,list2,flæskəʤ,sw,cvcc,flask,y,1,0.7875,0.545454545,0.628591575,1109.408425,1109.408425,1109.408425
78,1,9/6/19,9/6/19 18:52,11:52:49,3.0.3.43,SRBOX,SRBOX,18,2,2,1,counterBalance2,7,v,n,y,SRBOX,3000,737132,735952,1,1170,737122,Procedure1,Keyboard,./recording/78_twɛɫvɔn.wav,list2,twɛɫvɔn,ss,cvcc,twelve,y,1,0.7875,0.863636364,0.469128936,700.871064,700.871064,700.871064
78,1,9/6/19,9/6/19 18:52,11:52:49,3.0.3.43,SRBOX,SRBOX,18,2,2,1,counterBalance2,9,s,y,y,SRBOX,3000,744532,743418,1,1104,744522,Procedure1,SRBOX,./recording/78_tɪnsəf.wav,list2,tɪnsəf,sw,cvc,tin,y,1,0.7875,0.575757576,0.319123739,784.876261,784.876261,784.876261
78,1,9/6/19,9/6/19 18:52,11:52:49,3.0.3.43,SRBOX,SRBOX,18,2,2,1,counterBalance2,11,th,n,y,SRBOX,3000,751981,750835,1,1139,751974,Procedure1,SRBOX,./recording/78_klɪfθaʊm.wav,list2,klɪfθaʊm,ss,cvc,cliff,y,1,0.7875,0.787878788,0.430776581,708.223419,708.223419,708.223419
78,1,9/6/19,9/6/19 18:52,11:52:49,3.0.3.43,SRBOX,SRBOX,18,2,2,1,counterBalance2,12,ch,n,y,SRBOX,3000,756232,755202,1,1015,756217,Procedure1,SRBOX,./recording/78_tɹɛntʃəm.wav,list2,tɹɛntʃəm,sw,cvcc,trench,y,1,0.7875,0.515151515,0.379715794,635.284206,635.284206,635.284206
78,1,9/6/19,9/6/19 18:52,11:52:49,3.0.3.43,SRBOX,SRBOX,18,2,2,1,counterBalance2,20,k,y,y,SRBOX,3000,785685,782685,,0,0,Procedure1,,,list2,tʌŋkəm,sw,cvc,tongue,n,0,0.7875,0.5,0.541247175,-541.247175,-541.247175,-541.247175
78,1,9/6/19,9/6/19 18:52,11:52:49,3.0.3.43,SRBOX,SRBOX,18,2,2,1,counterBalance2,22,p,y,y,SRBOX,3000,791885,788885,,0,0,Procedure1,,,list2,pælpæb,ss,cvc,pal,n,0,0.7875,0.075757576,0.363046369,-363.046369,-363.046369,-363.046369
78,1,9/6/19,9/6/19 18:52,11:52:49,3.0.3.43,SRBOX,SRBOX,18,2,2,1,counterBalance2,23,ch,n,y,SRBOX,3000,793679,791985,1,1692,793677,Procedure1,Keyboard,./recording/78_pɛntʃəb.wav,list2,pɛntʃəb,sw,cvc,pen,y,1,0.7875,0.681818182,0.340578798,1351.421202,1351.421202,1351.421202
78,1,9/6/19,9/6/19 18:52,11:52:49,3.0.3.43,SRBOX,SRBOX,18,2,2,1,counterBalance2,25,v,n,y,SRBOX,3000,801131,799985,1,1130,801115,Procedure1,Keyboard,./recording/78_sɛɫvɔn.wav,list2,sɛɫvɔn,ss,cvc,sell,y,1,0.7875,0.439393939,0.425047338,704.952662,704.952662,704.952662
78,1,9/6/19,9/6/19 18:52,11:52:49,3.0.3.43,SRBOX,SRBOX,18,2,2,1,counterBalance2,26,th,n,y,SRBOX,3000,805366,804352,1,1012,805364,Procedure1,Keyboard,./recording/78_tɛlθaum.wav,list2,tɛlθaum,ss,cvc,tell,y,1,0.7875,0.409090909,0.443182138,568.817862,568.817862,568.817862
78,1,9/6/19,9/6/19 18:52,11:52:49,3.0.3.43,SRBOX,SRBOX,18,2,2,1,counterBalance2,27,ch,n,y,SRBOX,3000,810221,808585,1,1624,810209,Procedure1,Keyboard,./recording/78_fʌntʃəθ.wav,list2,fʌntʃəθ,sw,cvc,fun,y,1,0.7875,0.712121212,0.398737613,1225.262387,1225.262387,1225.262387
78,1,9/6/19,9/6/19 18:52,11:52:49,3.0.3.43,SRBOX,SRBOX,18,2,2,1,counterBalance2,29,dz,n,y,SRBOX,3000,817592,816535,1,1057,817592,Procedure1,Keyboard,./recording/78_dʌnʤeɪb.wav,list2,dʌnʤeɪb,ss,cvc,done,y,1,0.7875,0.424242424,0.324398934,732.601066,732.601066,732.601066
78,1,9/6/19,9/6/19 18:52,11:52:49,3.0.3.43,SRBOX,SRBOX,18,2,2,1,counterBalance2,37,th,n,y,SRBOX,3000,843342,842402,1,936,843338,Procedure1,SRBOX,./recording/78_rʌnθum.wav,list2,rʌnθum,ss,cvc,run,y,1,0.7875,0.939393939,0.461335669,474.664331,474.664331,474.664331
78,1,9/6/19,9/6/19 18:52,11:52:49,3.0.3.43,SRBOX,SRBOX,18,2,2,1,counterBalance2,38,s,y,y,SRBOX,3000,847742,846552,1,1185,847737,Procedure1,SRBOX,./recording/78_kænsəf.wav,list2,kænsəf,sw,cvc,can,y,1,0.7875,0.545454545,0.339995163,845.004837,845.004837,845.004837
78,1,9/6/19,9/6/19 18:52,11:52:49,3.0.3.43,SRBOX,SRBOX,18,2,2,1,counterBalance2,39,p,y,y,SRBOX,3000,853042,850952,1,2083,853035,Procedure1,Keyboard,./recording/78_slæmpəʃ.wav,list2,slæmpəʃ,sw,cvc,slam,y,1,0.7875,0.560606061,0.49216454,1590.83546,1590.83546,1590.83546
78,1,9/6/19,9/6/19 18:52,11:52:49,3.0.3.43,SRBOX,SRBOX,18,2,2,1,counterBalance2,49,k,y,y,SRBOX,3000,888511,886152,1,2345,888497,Procedure1,SRBOX,./recording/78_dʌskoʊʤ.wav,list2,dʌskoʊʤ,ss,cvcc,dusk,desk,0,0.7875,0.484848485,0.542573696,1802.426304,886.7825959,1021.686966
78,1,9/6/19,9/6/19 18:52,11:52:49,3.0.3.43,SRBOX,SRBOX,18,2,2,1,counterBalance2,50,ch,n,y,SRBOX,3000,894752,891752,,0,0,Procedure1,,,list2,bɹʌntʃeɪp,ss,cvcc,brunch,n,0,0.7875,0.272727273,0.251207392,-251.207392,-251.207392,-251.207392
78,1,9/6/19,9/6/19 18:52,11:52:49,3.0.3.43,SRBOX,SRBOX,18,2,2,1,counterBalance2,52,k,y,y,SRBOX,3000,902172,900885,1,1278,902163,Procedure1,SRBOX,./recording/78_dɛskɛp.wav,list2,dɛskɛp,ss,cvcc,desk,y,1,0.7875,0.803030303,0.59202447,685.97553,685.97553,685.97553
78,1,9/6/19,9/6/19 18:52,11:52:49,3.0.3.43,SRBOX,SRBOX,18,2,2,1,counterBalance2,56,k,y,y,SRBOX,3000,918952,915952,,0,0,Procedure1,,,list2,kʌskəv,sw,cvc,cuss,n,0,0.7875,0.136363636,0.381868622,-381.868622,-381.868622,-381.868622
78,1,9/6/19,9/6/19 18:52,11:52:49,3.0.3.43,SRBOX,SRBOX,18,2,2,1,counterBalance2,57,ch,n,y,SRBOX,3000,922018,919018,,0,0,Procedure1,,,list2,fɹɛntʃəb,sw,cvcc,french,n,0,0.7875,0.121212121,0.444853171,-444.853171,-444.853171,-444.853171
78,1,9/6/19,9/6/19 18:52,11:52:49,3.0.3.43,SRBOX,SRBOX,18,2,2,1,counterBalance2,58,p,y,y,SRBOX,3000,925118,922118,,0,0,Procedure1,,,list2,pʌɫpɔɪn,ss,cvcc,pulp,n,0,0.7875,0.651515152,0.515686402,-515.686402,-515.686402,-515.686402
78,1,9/6/19,9/6/19 18:52,11:52:49,3.0.3.43,SRBOX,SRBOX,18,2,2,1,counterBalance2,59,th,n,y,SRBOX,3000,926392,925202,1,1179,926381,Procedure1,SRBOX,./recording/78_stɛpθeɪm.wav,list2,stɛpθeɪm,ss,cvc,step,y,1,0.7875,0.909090909,0.639046668,539.953332,539.953332,539.953332
78,1,9/6/19,9/6/19 18:52,11:52:49,3.0.3.43,SRBOX,SRBOX,18,2,2,1,counterBalance2,65,k,y,y,SRBOX,3000,949685,946685,,0,0,Procedure1,,,list2,daɹkaup,ss,cvc,dark,n,0,0.7875,0.878787879,0.509416613,-509.416613,-509.416613,-509.416613
78,1,9/6/19,9/6/19 18:52,11:52:49,3.0.3.43,SRBOX,SRBOX,18,2,2,1,counterBalance2,66,k,y,y,SRBOX,3000,951520,949785,1,1729,951514,Procedure1,SRBOX,./recording/78_rɪskəl.wav,list2,rɪskəl,sw,cvcc,risk,y,1,0.7875,0.787878788,0.453365935,1275.634065,1275.634065,1275.634065
78,1,9/6/19,9/6/19 18:52,11:52:49,3.0.3.43,SRBOX,SRBOX,18,2,2,1,counterBalance2,68,dz,n,y,SRBOX,3000,959032,957852,1,1179,959031,Procedure1,SRBOX,./recording/78_ʧɪnʤeɪp.wav,list2,ʧɪnʤeɪp,ss,cvc,chin,y,1,0.7875,0.515151515,0.521764559,657.235441,657.235441,657.235441
78,1,9/6/19,9/6/19 18:52,11:52:49,3.0.3.43,SRBOX,SRBOX,18,2,2,1,counterBalance2,72,sh,n,y,SRBOX,3000,972522,971502,1,1008,972510,Procedure1,SRBOX,./recording/78_skɔɹʃəb.wav,list2,skɔɹʃəb,sw,cvc,scar,y,1,0.7875,0.909090909,0.424948006,583.051994,583.051994,583.051994
78,1,9/6/19,9/6/19 18:52,11:52:49,3.0.3.43,SRBOX,SRBOX,18,2,2,1,counterBalance2,73,ch,n,y,SRBOX,3000,978752,975752,,0,0,Procedure1,,,list2,stɔntʃeθ,ss,cvcc,staunch,n,0,0.7875,0.212121212,0.573327227,-573.327227,-573.327227,-573.327227
78,1,9/6/19,9/6/19 18:52,11:52:49,3.0.3.43,SRBOX,SRBOX,18,2,2,1,counterBalance2,77,s,y,y,SRBOX,3000,989259,988102,1,1155,989257,Procedure1,SRBOX,./recording/78_pʌɫsəm.wav,list2,pʌɫsəm,sw,cvcc,pulse,y,1,0.7875,0.333333333,0.419576718,735.423282,735.423282,735.423282
78,1,9/6/19,9/6/19 18:52,11:52:49,3.0.3.43,SRBOX,SRBOX,18,2,2,1,counterBalance2,79,p,y,y,SRBOX,3000,996795,995552,1,1243,996795,Procedure1,SRBOX,./recording/78_skʌmpədʒ.wav,list2,skʌmpədʒ,sw,cvc,skum,y,1,0.7875,0.333333333,0.539234481,703.765519,703.765519,703.765519
78,1,9/6/19,9/6/19 18:52,11:52:49,3.0.3.43,SRBOX,SRBOX,18,2,2,1,counterBalance2,83,k,y,y,SRBOX,3000,1012632,1011118,1,1504,1012622,Procedure1,Keyboard,./recording/78_hʌskiv.wav,list2,hʌskiv,ss,cvcc,husk,y,1,0.7875,0.515151515,0.583994671,920.005329,920.005329,920.005329
78,1,9/6/19,9/6/19 18:52,11:52:49,3.0.3.43,SRBOX,SRBOX,18,2,2,1,counterBalance2,84,k,y,y,SRBOX,3000,1017342,1015835,1,1501,1017336,Procedure1,SRBOX,./recording/78_dʌɫkəθ.wav,list2,dʌɫkəθ,sw,cvc,dull,y,1,0.7875,0.181818182,0.455528994,1045.471006,1045.471006,1045.471006
78,1,9/6/19,9/6/19 18:52,11:52:49,3.0.3.43,SRBOX,SRBOX,18,2,2,1,counterBalance2,85,dz,n,y,SRBOX,3000,1021762,1020552,1,1195,1021747,Procedure1,Keyboard,./recording/78_taʊnʤət.wav,list2,taʊnʤət,sw,cvc,town,y,1,0.7875,0.803030303,0.424324005,770.675995,770.675995,770.675995
78,1,9/6/19,9/6/19 18:52,11:52:49,3.0.3.43,SRBOX,SRBOX,18,2,2,1,counterBalance2,86,s,y,y,SRBOX,3000,1026179,1024985,1,1180,1026165,Procedure1,SRBOX,./recording/78_gʌɫsɔm.wav,list2,gʌɫsɔm,ss,cvc,gull,gaul,0,0.7875,0.196969697,0.336258443,843.741557,864.5553361,1282.432367
78,1,9/6/19,9/6/19 18:52,11:52:49,3.0.3.43,SRBOX,SRBOX,18,2,2,1,counterBalance2,87,k,y,y,SRBOX,3000,1031382,1029435,1,1945,1031380,Procedure1,SRBOX,./recording/78_mɪɫkæθ.wav,list2,mɪɫkæθ,ss,cvcc,milk,y,1,0.7875,0.939393939,0.628986168,1316.013832,1316.013832,1316.013832
78,1,9/6/19,9/6/19 18:52,11:52:49,3.0.3.43,SRBOX,SRBOX,18,2,2,1,counterBalance2,89,p,y,y,SRBOX,3000,1039222,1037685,1,1536,1039221,Procedure1,SRBOX,./recording/78_lʌmpædʒ.wav,list2,lʌmpædʒ,ss,cvcc,lump,y,1,0.7875,0.772727273,0.55565574,980.34426,980.34426,980.34426
78,1,9/6/19,9/6/19 18:52,11:52:49,3.0.3.43,SRBOX,SRBOX,18,2,2,1,counterBalance2,92,th,n,y,SRBOX,3000,1051618,1048618,,0,0,Procedure1,,,list2,mʌnθum,ss,cvcc,month,n,0,0.7875,0.515151515,0.433545406,-433.545406,-433.545406,-433.545406
78,1,9/6/19,9/6/19 18:52,11:52:49,3.0.3.43,SRBOX,SRBOX,18,2,2,1,counterBalance2,93,k,y,y,SRBOX,3000,1054131,1051702,1,2417,1054119,Procedure1,SRBOX,./recording/78_bʌɫkæθ.wav,list2,bʌɫkæθ,ss,cvcc,bulk,y,1,0.7875,0.681818182,0.506364948,1910.635052,886.7825959,975.1398808
78,1,9/6/19,9/6/19 18:52,11:52:49,3.0.3.43,SRBOX,SRBOX,18,2,2,1,counterBalance2,95,k,y,y,SRBOX,3000,1061781,1060485,1,1280,1061765,Procedure1,Keyboard,./recording/78_staɹkaup.wav,list2,staɹkaup,ss,cvc,star,y,1,0.7875,0.727272727,0.522986429,757.013571,757.013571,757.013571
78,1,9/6/19,9/6/19 18:52,11:52:49,3.0.3.43,SRBOX,SRBOX,18,2,2,1,counterBalance2,97,k,y,y,SRBOX,3000,1071085,1068085,,0,0,Procedure1,,,list2,gæŋkuf,ss,cvc,gang,n,0,0.7875,0.409090909,0.540895227,-540.895227,-540.895227,-540.895227
78,1,9/6/19,9/6/19 18:52,11:52:49,3.0.3.43,SRBOX,SRBOX,18,2,2,1,counterBalance2,99,ch,n,y,SRBOX,3000,1075978,1074252,1,1725,1075977,Procedure1,SRBOX,./recording/78_tʌntʃeɪp.wav,list2,tʌntʃeɪp,ss,cvc,ton,y,1,0.7875,0.196969697,0.404779741,1320.220259,1320.220259,1320.220259
78,1,9/6/19,9/6/19 18:52,11:52:49,3.0.3.43,SRBOX,SRBOX,18,2,2,1,counterBalance2,100,k,y,y,SRBOX,3000,1080740,1079168,1,1562,1080730,Procedure1,SRBOX,./recording/78_θæŋkəf.wav,list2,θæŋkəf,sw,cvcc,thank,y,1,0.7875,0.636363636,0,1562,1562,1562
78,1,9/6/19,9/6/19 18:52,11:52:49,3.0.3.43,SRBOX,SRBOX,18,2,2,1,counterBalance2,101,k,y,y,SRBOX,3000,1085172,1083952,1,1204,1085156,Procedure1,SRBOX,./recording/78_pɹɛskəp.wav,list2,pɹɛskəp,sw,cvc,press,y,1,0.7875,0.636363636,0.395719294,808.280706,808.280706,808.280706
78,1,9/6/19,9/6/19 18:52,11:52:49,3.0.3.43,SRBOX,SRBOX,18,2,2,1,counterBalance2,104,dz,n,y,SRBOX,3000,1097552,1094552,,0,0,Procedure1,,,list2,kɹɪnʤəp,sw,cvcc,cringe,n,0,0.7875,0.681818182,0.393283131,-393.283131,-393.283131,-393.283131
78,1,9/6/19,9/6/19 18:52,11:52:49,3.0.3.43,SRBOX,SRBOX,18,2,2,1,counterBalance2,105,s,y,y,SRBOX,3000,1098929,1097635,1,1289,1098924,Procedure1,Keyboard,./recording/78_ɹɪnsæf.wav,list2,ɹɪnsæf,ss,cvcc,rinse,y,1,0.7875,0.606060606,0.448494387,840.505613,840.505613,840.505613
78,1,9/6/19,9/6/19 18:52,11:52:49,3.0.3.43,SRBOX,SRBOX,18,2,2,1,counterBalance2,112,dz,n,y,SRBOX,3000,1121571,1120702,1,865,1121567,Procedure1,Keyboard,./recording/78_pɪnʤup.wav,list2,pɪnʤup,ss,cvc,pin,y,1,0.7875,0.712121212,0.348615689,516.384311,516.384311,516.384311
78,1,9/6/19,9/6/19 18:52,11:52:49,3.0.3.43,SRBOX,SRBOX,18,2,2,1,counterBalance2,115,k,y,y,SRBOX,3000,1133012,1132085,1,918,1133003,Procedure1,SRBOX,./recording/78_tæskəθ.wav,list2,tæskəθ,sw,cvcc,task,y,1,0.7875,0.833333333,0.431440329,486.559671,486.559671,486.559671
78,1,9/6/19,9/6/19 18:52,11:52:49,3.0.3.43,SRBOX,SRBOX,18,2,2,1,counterBalance2,119,k,y,y,SRBOX,3000,1148181,1146935,1,1230,1148165,Procedure1,SRBOX,./recording/78_fʌskoʊʤ.wav,list2,fʌskoʊʤ,ss,cvc,fuss,y,1,0.7875,0.424242424,0.467101085,762.898915,762.898915,762.898915
78,1,9/6/19,9/6/19 18:52,11:52:49,3.0.3.43,SRBOX,SRBOX,18,2,2,1,counterBalance2,121,p,y,y,SRBOX,3000,1155429,1154469,1,959,1155428,Procedure1,SRBOX,./recording/78_pʌmpədʒ.wav,list2,pʌmpədʒ,sw,cvcc,pump,y,1,0.7875,0.636363636,0.435283953,523.716047,523.716047,523.716047
78,1,9/6/19,9/6/19 18:52,11:52:49,3.0.3.43,SRBOX,SRBOX,18,2,2,1,counterBalance2,123,sh,n,y,SRBOX,3000,1162752,1161668,1,1080,1162748,Procedure1,Keyboard,./recording/78_hɔɹʃɔb.wav,list2,hɔɹʃɔb,ss,cvcc,harsh,y,1,0.7875,0.575757576,0.455218011,624.781989,624.781989,624.781989
78,1,9/6/19,9/6/19 18:52,11:52:49,3.0.3.43,SRBOX,SRBOX,18,2,2,1,counterBalance2,125,k,y,y,SRBOX,3000,1170149,1169068,1,1081,1170149,Procedure1,SRBOX,./recording/78_glæskəθ.wav,list2,glæskəθ,sw,cvc,glass,y,1,0.7875,0.893939394,0.532761297,548.238703,548.238703,548.238703
78,1,9/6/19,9/6/19 18:52,11:52:49,3.0.3.43,SRBOX,SRBOX,18,2,2,1,counterBalance2,126,dz,n,y,SRBOX,3000,1174441,1173335,1,1105,1174440,Procedure1,SRBOX,./recording/78_lʌndʒəb.wav,list2,lʌndʒəb,sw,cvcc,lunge,y,1,0.7875,0.621212121,0.401736976,703.263024,703.263024,703.263024
78,1,9/6/19,9/6/19 18:52,11:52:49,3.0.3.43,SRBOX,SRBOX,18,2,2,1,counterBalance2,128,p,y,y,SRBOX,3000,1181734,1180735,1,999,1181734,Procedure1,SRBOX,./recording/78_tʃæmpəʃ.wav,list2,tʃæmpəʃ,sw,cvcc,champ,y,1,0.7875,0.5,0.436133314,562.866686,562.866686,562.866686
78,1,9/6/19,9/6/19 18:52,11:52:49,3.0.3.43,SRBOX,SRBOX,18,2,2,1,counterBalance2,129,ch,n,y,SRBOX,3000,1187471,1184935,1,2534,1187469,Procedure1,SRBOX,./recording/78_plæntʃəb.wav,list2,plæntʃəb,sw,cvcc,plant,plan,0,0.7875,0.318181818,0.389654582,2144.345418,886.7825959,980.0315037
78,1,9/6/19,9/6/19 18:52,11:52:49,3.0.3.43,SRBOX,SRBOX,18,2,2,1,counterBalance2,130,k,y,y,SRBOX,3000,1192684,1190702,1,1973,1192675,Procedure1,SRBOX,./recording/78_tɹʌŋkɛm.wav,list2,tɹʌŋkɛm,ss,cvcc,trunk,y,1,0.7875,0.757575758,0.484556236,1488.443764,1488.443764,1488.443764
78,1,9/6/19,9/6/19 18:52,11:52:49,3.0.3.43,SRBOX,SRBOX,18,2,2,1,counterBalance2,131,ch,n,y,SRBOX,3000,1197299,1195902,1,1395,1197297,Procedure1,Keyboard,./recording/78_gɔntʃəθ.wav,list2,gɔntʃəθ,sw,cvc,gone,y,1,0.7875,0.575757576,0.353751691,1041.248309,1041.248309,1041.248309
78,1,9/6/19,9/6/19 18:52,11:52:49,3.0.3.43,SRBOX,SRBOX,18,2,2,1,counterBalance2,133,k,y,y,SRBOX,3000,1204868,1203618,1,1250,1204868,Procedure1,SRBOX,./recording/78_gæskauʤ.wav,list2,gæskauʤ,ss,cvc,gas,y,1,0.7875,0.848484848,0.576197745,673.802255,673.802255,673.802255
78,1,9/6/19,9/6/19 18:52,11:52:49,3.0.3.43,SRBOX,SRBOX,18,2,2,1,counterBalance2,137,k,y,y,SRBOX,3000,1219318,1217335,1,1981,1219316,Procedure1,SRBOX,./recording/78_fɪɫkæθ.wav,list2,fɪɫkæθ,ss,cvc,fill,y,1,0.7875,0.318181818,0.295811523,1685.188477,864.5553361,1685.188477
78,1,9/6/19,9/6/19 18:52,11:52:49,3.0.3.43,SRBOX,SRBOX,18,2,2,1,counterBalance2,139,p,y,y,SRBOX,3000,1229774,1227202,1,2572,1229774,Procedure1,Keyboard,./recording/78_skʌɫpɔɪn.wav,list2,skʌɫpɔɪn,ss,cvc,skull,y,1,0.7875,0.5,0.520070204,2051.929796,864.5553361,1018.034966
78,1,9/6/19,9/6/19 18:52,11:52:49,3.0.3.43,SRBOX,SRBOX,18,2,2,1,counterBalance2,147,th,n,y,SRBOX,3000,1255710,1254602,1,1093,1255695,Procedure1,SRBOX,./recording/78_stɛlθəm.wav,list2,stɛlθəm,sw,cvcc,stealth,y,1,0.7875,0.5,0.539791708,553.208292,553.208292,553.208292
78,1,9/6/19,9/6/19 18:52,11:52:49,3.0.3.43,SRBOX,SRBOX,18,2,2,1,counterBalance2,151,th,n,y,SRBOX,3000,1271231,1269768,1,1461,1271229,Procedure1,SRBOX,./recording/78_fɪfθəm.wav,list2,fɪfθəm,sw,cvcc,fifth,y,1,0.7875,0.560606061,0.470288923,990.711077,990.711077,990.711077
78,1,9/6/19,9/6/19 18:52,11:52:49,3.0.3.43,SRBOX,SRBOX,18,2,2,1,counterBalance2,153,th,n,y,SRBOX,3000,1278472,1277535,1,930,1278465,Procedure1,SRBOX,./recording/78_kɪdθəm.wav,list2,kɪdθəm,sw,cvc,kid,y,1,0.7875,0.863636364,0.381225407,548.774593,548.774593,548.774593
78,1,9/6/19,9/6/19 18:52,11:52:49,3.0.3.43,SRBOX,SRBOX,18,2,2,1,counterBalance2,154,dz,n,y,SRBOX,3000,1283029,1281702,1,1320,1283022,Procedure1,Keyboard,./recording/78_gɹʌnʤam.wav,list2,gɹʌnʤam,ss,cvcc,grunge,y,1,0.7875,0.454545455,0.452874936,867.125064,867.125064,867.125064
78,1,9/6/19,9/6/19 18:52,11:52:49,3.0.3.43,SRBOX,SRBOX,18,2,2,1,counterBalance2,155,p,y,y,SRBOX,3000,1287831,1286252,1,1565,1287817,Procedure1,SRBOX,./recording/78_nʌmpədʒ.wav,list2,nʌmpədʒ,sw,cvc,numb,y,1,0.7875,0.53030303,0.497173148,1067.826852,1067.826852,1067.826852
78,1,9/6/19,9/6/19 18:52,11:52:49,3.0.3.43,SRBOX,SRBOX,18,2,2,1,counterBalance2,158,k,y,y,SRBOX,3000,1298230,1297252,1,977,1298229,Procedure1,SRBOX,./recording/78_plʌskəv.wav,list2,plʌskəv,sw,cvc,plus,y,1,0.7875,0.666666667,0.453493135,523.506865,523.506865,523.506865
78,1,9/6/19,9/6/19 18:52,11:52:49,3.0.3.43,SRBOX,SRBOX,18,2,2,1,counterBalance2,159,k,y,y,SRBOX,3000,1302531,1301402,1,1125,1302527,Procedure1,Keyboard,./recording/78_kɪskəl.wav,list2,kɪskəl,sw,cvc,kiss,y,1,0.7875,0.909090909,0.521944736,603.055264,603.055264,603.055264
78,1,9/6/19,9/6/19 18:52,11:52:49,3.0.3.43,SRBOX,SRBOX,18,2,2,1,counterBalance2,160,dz,n,y,SRBOX,3000,1308752,1305752,,0,0,Procedure1,,,list2,bʌnʤəm,sw,cvc,bun,n,0,0.7875,0.196969697,0.344165012,-344.165012,-344.165012,-344.165012
78,1,9/6/19,9/6/19 18:52,11:52:49,3.0.3.43,SRBOX,SRBOX,18,2,2,1,counterBalance2,161,v,n,y,SRBOX,3000,1310766,1308835,1,1930,1310765,Procedure1,Keyboard,./recording/78_saɫvuɫ.wav,list2,saɫvuɫ,ss,cvcc,solve,y,1,0.7875,0.272727273,0.556430897,1373.569103,1373.569103,1373.569103
78,1,9/6/19,9/6/19 18:52,11:52:49,3.0.3.43,SRBOX,SRBOX,18,2,2,1,counterBalance2,167,ch,n,y,SRBOX,3000,1332435,1329435,,0,0,Procedure1,,,list2,blæntʃəb,sw,cvcc,blanch,n,0,0.7875,0.136363636,0,0,0,0
78,1,9/6/19,9/6/19 18:52,11:52:49,3.0.3.43,SRBOX,SRBOX,18,2,2,1,counterBalance2,170,dz,n,y,SRBOX,3000,1339862,1338685,1,1160,1339845,Procedure1,SRBOX,./recording/78_fɹɪndʒəp.wav,list2,fɹɪndʒəp,sw,cvcc,fringe,y,1,0.7875,0.393939394,0.504812773,655.187227,655.187227,655.187227
78,1,9/6/19,9/6/19 18:52,11:52:49,3.0.3.43,SRBOX,SRBOX,18,2,2,1,counterBalance2,171,ch,n,y,SRBOX,3000,1344221,1343085,1,1134,1344219,Procedure1,SRBOX,./recording/78_lʌntʃəb.wav,list2,lʌntʃəb,sw,cvcc,lunch,y,1,0.7875,0.696969697,0.352418225,781.581775,781.581775,781.581775
78,1,9/6/19,9/6/19 18:52,11:52:49,3.0.3.43,SRBOX,SRBOX,18,2,2,1,counterBalance2,172,ch,n,y,SRBOX,3000,1348461,1347435,1,1022,1348457,Procedure1,Keyboard,./recording/78_sʌntʃəb.wav,list2,sʌntʃəb,sw,cvc,sun,y,1,0.7875,0.863636364,0.474834101,547.165899,547.165899,547.165899
78,1,9/6/19,9/6/19 18:52,11:52:49,3.0.3.43,SRBOX,SRBOX,18,2,2,1,counterBalance2,174,dz,n,y,SRBOX,3000,1355828,1354768,1,1060,1355828,Procedure1,SRBOX,./recording/78_laʊndʒɔɪt.wav,list2,laʊndʒɔɪt,ss,cvcc,lounge,y,1,0.7875,0.787878788,0.510902365,549.097635,549.097635,549.097635
78,1,9/6/19,9/6/19 18:52,11:52:49,3.0.3.43,SRBOX,SRBOX,18,2,2,1,counterBalance2,175,ch,n,y,SRBOX,3000,1362002,1359002,,0,0,Procedure1,,,list2,kɹʌntʃeɪθ,ss,cvcc,crunch,n,0,0.7875,0.757575758,0.366088213,-366.088213,-366.088213,-366.088213
78,1,9/6/19,9/6/19 18:52,11:52:49,3.0.3.43,SRBOX,SRBOX,18,2,2,1,counterBalance2,181,k,y,y,SRBOX,3000,1382742,1381668,1,1058,1382726,Procedure1,SRBOX,./recording/78_tʌskəv.wav,list2,tʌskəv,sw,cvcc,tusk,y,1,0.7875,0.681818182,0.433919659,624.080341,624.080341,624.080341
78,1,9/6/19,9/6/19 18:52,11:52:49,3.0.3.43,SRBOX,SRBOX,18,2,2,1,counterBalance2,182,th,n,y,SRBOX,3000,1387111,1385952,1,1158,1387110,Procedure1,SRBOX,./recording/78_wɪdθəm.wav,list2,wɪdθəm,sw,cvcc,width,y,1,0.7875,0.424242424,0.452556921,705.443079,705.443079,705.443079
78,1,9/6/19,9/6/19 18:52,11:52:49,3.0.3.43,SRBOX,SRBOX,18,2,2,1,counterBalance2,185,th,n,y,SRBOX,3000,1400240,1398835,1,1400,1400235,Procedure1,SRBOX,./recording/78_dɛpθeɪm.wav,list2,dɛpθeɪm,ss,cvcc,depth,y,1,0.7875,0.818181818,0.241383025,1158.616975,1158.616975,1158.616975
78,1,9/6/19,9/6/19 18:52,11:52:49,3.0.3.43,SRBOX,SRBOX,18,2,2,1,counterBalance2,186,ch,n,y,SRBOX,3000,1404620,1403452,1,1168,1404620,Procedure1,SRBOX,./recording/78_tɛntʃæm.wav,list2,tɛntʃæm,ss,cvc,ten,y,1,0.7875,0.5,0.405536344,762.463656,762.463656,762.463656
78,1,9/6/19,9/6/19 18:52,11:52:49,3.0.3.43,SRBOX,SRBOX,18,2,2,1,counterBalance2,191,s,y,y,SRBOX,3000,1422371,1421268,1,1092,1422360,Procedure1,SRBOX,./recording/78_tʃænsəf.wav,list2,tʃænsəf,sw,cvcc,chance,y,1,0.7875,0.636363636,0.470105266,621.894734,621.894734,621.894734
78,1,9/6/19,9/6/19 18:52,11:52:49,3.0.3.43,SRBOX,SRBOX,18,2,2,1,counterBalance2,192,p,y,y,SRBOX,3000,1426939,1425602,1,1337,1426939,Procedure1,Keyboard,./recording/78_skælpæb.wav,list2,skælpæb,ss,cvcc,scalp,y,1,0.7875,0.727272727,0.675769265,661.230735,661.230735,661.230735
78,1,9/6/19,9/6/19 18:52,11:52:49,3.0.3.43,SRBOX,SRBOX,18,2,2,1,counterBalance2,200,v,n,y,SRBOX,3000,1455771,1454435,1,1325,1455760,Procedure1,SRBOX,./recording/78_daɫvuɫ.wav,list2,daɫvuɫ,ss,cvc,doll,y,1,0.7875,0.560606061,0.299485113,1025.514887,1025.514887,1025.514887
79,1,9/6/19,9/6/19 19:21,12:21:40,3.0.3.43,SRBOX,SRBOX,18,3,2,1,counterBalance3,1,v,n,y,SRBOX,3000,3680687,3679531,1,1145,3680676,Procedure1,SRBOX,./recording/79_daɫvəɫ.wav,list3,daɫvəɫ,sw,cvc,doll,y,1,0.825,0.560606061,0.440334408,704.665592,704.665592,704.665592
79,1,9/6/19,9/6/19 19:21,12:21:40,3.0.3.43,SRBOX,SRBOX,18,3,2,1,counterBalance3,9,p,y,y,SRBOX,3000,3709887,3708531,1,1351,3709882,Procedure1,SRBOX,./recording/79_skælpəb.wav,list3,skælpəb,sw,cvcc,scalp,y,1,0.825,0.727272727,0.610340124,740.659876,740.659876,740.659876
79,1,9/6/19,9/6/19 19:21,12:21:40,3.0.3.43,SRBOX,SRBOX,18,3,2,1,counterBalance3,10,s,y,y,SRBOX,3000,3715117,3713114,1,2002,3715116,Procedure1,SRBOX,./recording/79_tʃænsuf.wav,list3,tʃænsuf,ss,cvcc,chance,y,1,0.825,0.636363636,0.514761905,1487.238095,685.6954607,878.4064906
79,1,9/6/19,9/6/19 19:21,12:21:40,3.0.3.43,SRBOX,SRBOX,18,3,2,1,counterBalance3,15,ch,n,y,SRBOX,3000,3733837,3731931,1,1896,3733827,Procedure1,SRBOX,./recording/79_tɛntʃəm.wav,list3,tɛntʃəm,sw,cvc,ten,y,1,0.825,0.5,0.370660687,1525.339313,685.727299,1525.339313
79,1,9/6/19,9/6/19 19:21,12:21:40,3.0.3.43,SRBOX,SRBOX,18,3,2,1,counterBalance3,16,th,n,y,SRBOX,3000,3738347,3737048,1,1292,3738340,Procedure1,SRBOX,./recording/79_dɛpθəm.wav,list3,dɛpθəm,sw,cvcc,depth,y,1,0.825,0.818181818,0.130570913,1161.429087,1161.429087,1161.429087
79,1,9/6/19,9/6/19 19:21,12:21:40,3.0.3.43,SRBOX,SRBOX,18,3,2,1,counterBalance3,19,th,n,y,SRBOX,3000,3748966,3747731,1,1233,3748964,Procedure1,SRBOX,./recording/79_wɪdθum.wav,list3,wɪdθum,ss,cvcc,width,y,1,0.825,0.424242424,0.446770289,786.229711,786.229711,786.229711
79,1,9/6/19,9/6/19 19:21,12:21:40,3.0.3.43,SRBOX,SRBOX,18,3,2,1,counterBalance3,20,k,y,y,SRBOX,3000,3753654,3752214,1,1434,3753648,Procedure1,SRBOX,./recording/79_tʌskɪv.wav,list3,tʌskɪv,ss,cvcc,tusk,y,1,0.825,0.681818182,0.664977319,769.022681,769.022681,769.022681
79,1,9/6/19,9/6/19 19:21,12:21:40,3.0.3.43,SRBOX,SRBOX,18,3,2,1,counterBalance3,26,ch,n,y,SRBOX,3000,3774906,3773831,1,1058,3774889,Procedure1,SRBOX,./recording/79_kɹʌntʃəθ.wav,list3,kɹʌntʃəθ,sw,cvcc,crunch,y,1,0.825,0.757575758,0.355433817,702.566183,702.566183,702.566183
79,1,9/6/19,9/6/19 19:21,12:21:40,3.0.3.43,SRBOX,SRBOX,18,3,2,1,counterBalance3,27,dz,n,y,SRBOX,3000,3779091,3778131,1,954,3779085,Procedure1,SRBOX,./recording/79_laʊndʒət.wav,list3,laʊndʒət,sw,cvcc,lounge,y,1,0.825,0.787878788,0.504859099,449.140901,449.140901,449.140901
79,1,9/6/19,9/6/19 19:21,12:21:40,3.0.3.43,SRBOX,SRBOX,18,3,2,1,counterBalance3,29,ch,n,y,SRBOX,3000,3786337,3785381,1,954,3786335,Procedure1,SRBOX,./recording/79_sʌntʃɔb.wav,list3,sʌntʃɔb,ss,cvc,sun,y,1,0.825,0.863636364,0.456141499,497.858501,497.858501,497.858501
79,1,9/6/19,9/6/19 19:21,12:21:40,3.0.3.43,SRBOX,SRBOX,18,3,2,1,counterBalance3,30,ch,n,y,SRBOX,3000,3790616,3789581,1,1020,3790601,Procedure1,SRBOX,./recording/79_lʌntʃɔb.wav,list3,lʌntʃɔb,ss,cvcc,lunch,y,1,0.825,0.696969697,0.448836225,571.163775,571.163775,571.163775
79,1,9/6/19,9/6/19 19:21,12:21:40,3.0.3.43,SRBOX,SRBOX,18,3,2,1,counterBalance3,31,dz,n,y,SRBOX,3000,3795117,3793831,1,1281,3795112,Procedure1,SRBOX,./recording/79_fɹɪndʒup.wav,list3,fɹɪndʒup,ss,cvcc,fringe,y,1,0.825,0.393939394,0.471448869,809.551131,809.551131,809.551131
79,1,9/6/19,9/6/19 19:21,12:21:40,3.0.3.43,SRBOX,SRBOX,18,3,2,1,counterBalance3,34,ch,n,y,SRBOX,3000,3807498,3804498,,0,0,Procedure1,,,list3,blæntʃɛb,ss,cvcc,blanch,n,0,0.825,0.136363636,0.301386207,-301.386207,-301.386207,-301.386207
79,1,9/6/19,9/6/19 19:21,12:21:40,3.0.3.43,SRBOX,SRBOX,18,3,2,1,counterBalance3,40,v,n,y,SRBOX,3000,3826014,3823014,,0,0,Procedure1,,,list3,saɫvəɫ,sw,cvcc,solve,n,0,0.825,0.272727273,0.480247936,-480.247936,-480.247936,-480.247936
79,1,9/6/19,9/6/19 19:21,12:21:40,3.0.3.43,SRBOX,SRBOX,18,3,2,1,counterBalance3,41,dz,n,y,SRBOX,3000,3829098,3826098,,0,0,Procedure1,,,list3,bʌnʤam,ss,cvc,bun,n,0,0.825,0.196969697,0.533254863,-533.254863,-533.254863,-533.254863
79,1,9/6/19,9/6/19 19:21,12:21:40,3.0.3.43,SRBOX,SRBOX,18,3,2,1,counterBalance3,42,k,y,y,SRBOX,3000,3830224,3829181,1,1026,3830207,Procedure1,SRBOX,./recording/79_kɪskɛl.wav,list3,kɪskɛl,ss,cvc,kiss,y,1,0.825,0.909090909,0.41178617,614.21383,614.21383,614.21383
79,1,9/6/19,9/6/19 19:21,12:21:40,3.0.3.43,SRBOX,SRBOX,18,3,2,1,counterBalance3,43,k,y,y,SRBOX,3000,3834744,3833448,1,1295,3834743,Procedure1,SRBOX,./recording/79_plʌskiv.wav,list3,plʌskiv,ss,cvc,plus,y,1,0.825,0.666666667,0.602286633,692.713367,692.713367,692.713367
79,1,9/6/19,9/6/19 19:21,12:21:40,3.0.3.43,SRBOX,SRBOX,18,3,2,1,counterBalance3,46,p,y,y,SRBOX,3000,3845397,3844148,1,1248,3845396,Procedure1,SRBOX,./recording/79_nʌmpædʒ.wav,list3,nʌmpædʒ,ss,cvc,numb,y,1,0.825,0.53030303,0.498357651,749.642349,749.642349,749.642349
79,1,9/6/19,9/6/19 19:21,12:21:40,3.0.3.43,SRBOX,SRBOX,18,3,2,1,counterBalance3,47,dz,n,y,SRBOX,3000,3849567,3848598,1,953,3849551,Procedure1,SRBOX,./recording/79_gɹʌnʤəm.wav,list3,gɹʌnʤəm,sw,cvcc,grunge,y,1,0.825,0.454545455,0.396664719,556.335281,556.335281,556.335281
79,1,9/6/19,9/6/19 19:21,12:21:40,3.0.3.43,SRBOX,SRBOX,18,3,2,1,counterBalance3,48,th,n,y,SRBOX,3000,3853736,3852764,1,968,3853732,Procedure1,Keyboard,./recording/79_kɪdθum.wav,list3,kɪdθum,ss,cvc,kid,y,1,0.825,0.863636364,0.395836814,572.163186,572.163186,572.163186
79,1,9/6/19,9/6/19 19:21,12:21:40,3.0.3.43,SRBOX,SRBOX,18,3,2,1,counterBalance3,50,th,n,y,SRBOX,3000,3862947,3861698,1,1232,3862930,Procedure1,SRBOX,./recording/79_fɪfθaʊm.wav,list3,fɪfθaʊm,ss,cvcc,fifth,y,1,0.825,0.560606061,0.527940664,704.059336,704.059336,704.059336
79,1,9/6/19,9/6/19 19:21,12:21:40,3.0.3.43,SRBOX,SRBOX,18,3,2,1,counterBalance3,54,th,n,y,SRBOX,3000,3876457,3875431,1,1021,3876452,Procedure1,Keyboard,./recording/79_stɛlθaum.wav,list3,stɛlθaum,ss,cvcc,stealth,y,1,0.825,0.5,0.555694706,465.305294,465.305294,465.305294
79,1,9/6/19,9/6/19 19:21,12:21:40,3.0.3.43,SRBOX,SRBOX,18,3,2,1,counterBalance3,62,p,y,y,SRBOX,3000,3906627,3905498,1,1117,3906615,Procedure1,Keyboard,./recording/79_skʌɫpən.wav,list3,skʌɫpən,sw,cvc,skull,y,1,0.825,0.5,0.438906803,678.093197,678.093197,678.093197
79,1,9/6/19,9/6/19 19:21,12:21:40,3.0.3.43,SRBOX,SRBOX,18,3,2,1,counterBalance3,64,k,y,y,SRBOX,3000,3915931,3912931,,0,0,Procedure1,,,list3,fɪɫkəθ,sw,cvc,fill,n,0,0.825,0.318181818,0.379301806,-379.301806,-379.301806,-379.301806
79,1,9/6/19,9/6/19 19:21,12:21:40,3.0.3.43,SRBOX,SRBOX,18,3,2,1,counterBalance3,68,k,y,y,SRBOX,3000,3926193,3925264,1,929,3926193,Procedure1,Keyboard,./recording/79_gæskəʤ.wav,list3,gæskəʤ,sw,cvc,gas,y,1,0.825,0.848484848,0.385228403,543.771597,543.771597,543.771597
79,1,9/6/19,9/6/19 19:21,12:21:40,3.0.3.43,SRBOX,SRBOX,18,3,2,1,counterBalance3,70,ch,n,y,SRBOX,3000,3933443,3932498,1,945,3933443,Procedure1,SRBOX,./recording/79_gɔntʃeθ.wav,list3,gɔntʃeθ,ss,cvc,gone,y,1,0.825,0.575757576,0.399532384,545.467616,545.467616,545.467616
79,1,9/6/19,9/6/19 19:21,12:21:40,3.0.3.43,SRBOX,SRBOX,18,3,2,1,counterBalance3,71,k,y,y,SRBOX,3000,3937677,3936648,1,1019,3937667,Procedure1,SRBOX,./recording/79_tɹʌŋkəm.wav,list3,tɹʌŋkəm,sw,cvcc,trunk,y,1,0.825,0.757575758,0.446801259,572.198741,572.198741,572.198741
79,1,9/6/19,9/6/19 19:21,12:21:40,3.0.3.43,SRBOX,SRBOX,18,3,2,1,counterBalance3,72,ch,n,y,SRBOX,3000,3941977,3940898,1,1062,3941960,Procedure1,Keyboard,./recording/79_plæntʃɛb.wav,list3,plæntʃɛb,ss,cvcc,plant,y,1,0.825,0.318181818,0.491713802,570.286198,570.286198,570.286198
79,1,9/6/19,9/6/19 19:21,12:21:40,3.0.3.43,SRBOX,SRBOX,18,3,2,1,counterBalance3,73,p,y,y,SRBOX,3000,3946706,3945198,1,1491,3946689,Procedure1,SRBOX,./recording/79_tʃæmpoʊʃ.wav,list3,tʃæmpoʊʃ,ss,cvcc,champ,y,1,0.825,0.5,0.598037684,892.962316,892.962316,892.962316
79,1,9/6/19,9/6/19 19:21,12:21:40,3.0.3.43,SRBOX,SRBOX,18,3,2,1,counterBalance3,75,dz,n,y,SRBOX,3000,3954067,3952981,1,1085,3954066,Procedure1,Keyboard,./recording/79_lʌndʒeɪb.wav,list3,lʌndʒeɪb,ss,cvcc,lunge,y,1,0.825,0.621212121,0.457308404,627.691596,627.691596,627.691596
79,1,9/6/19,9/6/19 19:21,12:21:40,3.0.3.43,SRBOX,SRBOX,18,3,2,1,counterBalance3,76,k,y,y,SRBOX,3000,3958393,3957264,1,1129,3958393,Procedure1,SRBOX,./recording/79_glæskɛθ.wav,list3,glæskɛθ,ss,cvc,glass,y,1,0.825,0.893939394,0.630500926,498.499074,498.499074,498.499074
79,1,9/6/19,9/6/19 19:21,12:21:40,3.0.3.43,SRBOX,SRBOX,18,3,2,1,counterBalance3,78,sh,n,y,SRBOX,3000,3967216,3966081,1,1124,3967205,Procedure1,SRBOX,./recording/79_hɔɹʃəb.wav,list3,hɔɹʃəb,sw,cvcc,harsh,y,1,0.825,0.575757576,0.463977829,660.022171,660.022171,660.022171
79,1,9/6/19,9/6/19 19:21,12:21:40,3.0.3.43,SRBOX,SRBOX,18,3,2,1,counterBalance3,80,p,y,y,SRBOX,3000,3974984,3973531,1,1452,3974983,Procedure1,SRBOX,./recording/79_pʌmpaʊdʒ.wav,list3,pʌmpaʊdʒ,ss,cvcc,pump,y,1,0.825,0.636363636,0.448161285,1003.838715,1003.838715,1003.838715
79,1,9/6/19,9/6/19 19:21,12:21:40,3.0.3.43,SRBOX,SRBOX,18,3,2,1,counterBalance3,82,k,y,y,SRBOX,3000,3983076,3981281,1,1779,3983060,Procedure1,SRBOX,./recording/79_fʌskəʤ.wav,list3,fʌskəʤ,sw,cvc,fuss,y,1,0.825,0.424242424,0.463196101,1315.803899,685.727299,1315.803899
79,1,9/6/19,9/6/19 19:21,12:21:40,3.0.3.43,SRBOX,SRBOX,18,3,2,1,counterBalance3,86,k,y,y,SRBOX,3000,3998186,3996998,1,1186,3998184,Procedure1,SRBOX,./recording/79_tæskɛθ.wav,list3,tæskɛθ,ss,cvcc,task,y,1,0.825,0.833333333,0.525337475,660.662525,660.662525,660.662525
79,1,9/6/19,9/6/19 19:21,12:21:40,3.0.3.43,SRBOX,SRBOX,18,3,2,1,counterBalance3,89,dz,n,y,SRBOX,3000,4008556,4007581,1,970,4008551,Procedure1,Keyboard,./recording/79_pɪnʤəp.wav,list3,pɪnʤəp,sw,cvc,pin,y,1,0.825,0.712121212,0.381340246,588.659754,588.659754,588.659754
79,1,9/6/19,9/6/19 19:21,12:21:40,3.0.3.43,SRBOX,SRBOX,18,3,2,1,counterBalance3,96,s,y,y,SRBOX,3000,4031417,4030331,1,1074,4031405,Procedure1,SRBOX,./recording/79_ɹɪnsəf.wav,list3,ɹɪnsəf,sw,cvcc,rinse,y,1,0.825,0.606060606,0.465474253,608.525747,608.525747,608.525747
79,1,9/6/19,9/6/19 19:21,12:21:40,3.0.3.43,SRBOX,SRBOX,18,3,2,1,counterBalance3,97,dz,n,y,SRBOX,3000,4035647,4034648,1,999,4035647,Procedure1,SRBOX,./recording/79_kɹɪnʤeɪp.wav,list3,kɹɪnʤeɪp,ss,cvcc,cringe,y,1,0.825,0.681818182,0.52148157,477.51843,477.51843,477.51843
79,1,9/6/19,9/6/19 19:21,12:21:40,3.0.3.43,SRBOX,SRBOX,18,3,2,1,counterBalance3,100,k,y,y,SRBOX,3000,4045985,4045014,1,971,4045985,Procedure1,SRBOX,./recording/79_pɹɛskɛp.wav,list3,pɹɛskɛp,ss,cvc,press,y,1,0.825,0.636363636,0.478091729,492.908271,492.908271,492.908271
79,1,9/6/19,9/6/19 19:21,12:21:40,3.0.3.43,SRBOX,SRBOX,18,3,2,1,counterBalance3,101,k,y,y,SRBOX,3000,4050640,4049198,1,1436,4050634,Procedure1,Keyboard,./recording/79_θæŋkuf.wav,list3,θæŋkuf,ss,cvcc,thank,y,1,0.825,0.636363636,0,1436,685.6954607,1436
79,1,9/6/19,9/6/19 19:21,12:21:40,3.0.3.43,SRBOX,SRBOX,18,3,2,1,counterBalance3,102,ch,n,y,SRBOX,3000,4056831,4053831,,0,0,Procedure1,,,list3,tʌntʃəp,sw,cvc,ton,n,0,0.825,0.196969697,0.372240634,-372.240634,-372.240634,-372.240634
79,1,9/6/19,9/6/19 19:21,12:21:40,3.0.3.43,SRBOX,SRBOX,18,3,2,1,counterBalance3,104,k,y,y,SRBOX,3000,4062998,4059998,,0,0,Procedure1,,,list3,gæŋkəf,sw,cvc,gang,n,0,0.825,0.409090909,0.313871461,-313.871461,-313.871461,-313.871461
79,1,9/6/19,9/6/19 19:21,12:21:40,3.0.3.43,SRBOX,SRBOX,18,3,2,1,counterBalance3,106,k,y,y,SRBOX,3000,4067500,4066148,1,1346,4067494,Procedure1,SRBOX,./recording/79_staɹkəp.wav,list3,staɹkəp,sw,cvc,star,stark,0,0.825,0.727272727,0.48584401,860.15599,685.727299,1032.757445
79,1,9/6/19,9/6/19 19:21,12:21:40,3.0.3.43,SRBOX,SRBOX,18,3,2,1,counterBalance3,108,k,y,y,SRBOX,3000,4074967,4073798,1,1165,4074963,Procedure1,SRBOX,./recording/79_bʌɫkəθ.wav,list3,bʌɫkəθ,sw,cvcc,bulk,y,1,0.825,0.681818182,0.541645052,623.354948,623.354948,623.354948
79,1,9/6/19,9/6/19 19:21,12:21:40,3.0.3.43,SRBOX,SRBOX,18,3,2,1,counterBalance3,109,th,n,y,SRBOX,3000,4079027,4078198,1,826,4079024,Procedure1,Keyboard,./recording/79_mʌnθəm.wav,list3,mʌnθəm,sw,cvcc,month,y,1,0.825,0.515151515,0.42644936,399.55064,399.55064,399.55064
79,1,9/6/19,9/6/19 19:21,12:21:40,3.0.3.43,SRBOX,SRBOX,18,3,2,1,counterBalance3,112,p,y,y,SRBOX,3000,4089275,4088414,1,860,4089274,Procedure1,SRBOX,./recording/79_lʌmpədʒ.wav,list3,lʌmpədʒ,sw,cvcc,lump,y,1,0.825,0.772727273,0.396427707,463.572293,463.572293,463.572293
79,1,9/6/19,9/6/19 19:21,12:21:40,3.0.3.43,SRBOX,SRBOX,18,3,2,1,counterBalance3,114,k,y,y,SRBOX,3000,4096448,4095548,1,900,4096448,Procedure1,SRBOX,./recording/79_mɪɫkəθ.wav,list3,mɪɫkəθ,sw,cvcc,milk,y,1,0.825,0.939393939,0.445414068,454.585932,454.585932,454.585932
79,1,9/6/19,9/6/19 19:21,12:21:40,3.0.3.43,SRBOX,SRBOX,18,3,2,1,counterBalance3,115,s,y,y,SRBOX,3000,4100955,4099664,1,1291,4100955,Procedure1,Keyboard,./recording/79_gʌɫsəm.wav,list3,gʌɫsəm,sw,cvc,gull,y,1,0.825,0.196969697,0.271428355,1019.571645,1019.571645,1019.571645
79,1,9/6/19,9/6/19 19:21,12:21:40,3.0.3.43,SRBOX,SRBOX,18,3,2,1,counterBalance3,116,dz,n,y,SRBOX,3000,4105247,4104181,1,1054,4105235,Procedure1,SRBOX,./recording/79_taʊnʤɔɪt.wav,list3,taʊnʤɔɪt,ss,cvc,town,y,1,0.825,0.803030303,0.449299299,604.700701,604.700701,604.700701
79,1,9/6/19,9/6/19 19:21,12:21:40,3.0.3.43,SRBOX,SRBOX,18,3,2,1,counterBalance3,117,k,y,y,SRBOX,3000,4109783,4108481,1,1300,4109781,Procedure1,Keyboard,./recording/79_dʌɫkæθ.wav,list3,dʌɫkæθ,ss,cvc,dull,y,1,0.825,0.181818182,0.331808724,968.191276,968.191276,968.191276
79,1,9/6/19,9/6/19 19:21,12:21:40,3.0.3.43,SRBOX,SRBOX,18,3,2,1,counterBalance3,118,k,y,y,SRBOX,3000,4114065,4112998,1,1066,4114064,Procedure1,SRBOX,./recording/79_hʌskəv.wav,list3,hʌskəv,sw,cvcc,husk,y,1,0.825,0.515151515,0.603452071,462.547929,462.547929,462.547929
79,1,9/6/19,9/6/19 19:21,12:21:40,3.0.3.43,SRBOX,SRBOX,18,3,2,1,counterBalance3,122,p,y,y,SRBOX,3000,4132047,4130598,1,1444,4132042,Procedure1,SRBOX,./recording/79_skʌmpaʊdʒ.wav,list3,skʌmpaʊdʒ,ss,cvc,skum,skum,0,0.825,0.333333333,0.604285937,839.714063,685.727299,1182.960047
79,1,9/6/19,9/6/19 19:21,12:21:40,3.0.3.43,SRBOX,SRBOX,18,3,2,1,counterBalance3,124,s,y,y,SRBOX,3000,4139387,4138348,1,1027,4139375,Procedure1,SRBOX,./recording/79_pʌɫsɔm.wav,list3,pʌɫsɔm,ss,cvcc,pulse,pull,0,0.825,0.333333333,0.413295194,613.704806,685.6954607,791.62936
79,1,9/6/19,9/6/19 19:21,12:21:40,3.0.3.43,SRBOX,SRBOX,18,3,2,1,counterBalance3,128,ch,n,y,SRBOX,3000,4154117,4152981,1,1136,4154117,Procedure1,SRBOX,./recording/79_stɔntʃəθ.wav,list3,stɔntʃəθ,sw,cvcc,staunch,y,1,0.825,0.212121212,0.554073654,581.926346,581.926346,581.926346
79,1,9/6/19,9/6/19 19:21,12:21:40,3.0.3.43,SRBOX,SRBOX,18,3,2,1,counterBalance3,129,sh,n,y,SRBOX,3000,4158556,4157348,1,1207,4158555,Procedure1,SRBOX,./recording/79_skɔɹʃɔb.wav,list3,skɔɹʃɔb,ss,cvc,scar,y,1,0.825,0.909090909,0.453051312,753.948688,753.948688,753.948688
79,1,9/6/19,9/6/19 19:21,12:21:40,3.0.3.43,SRBOX,SRBOX,18,3,2,1,counterBalance3,133,dz,n,y,SRBOX,3000,4172011,4171048,1,962,4172010,Procedure1,Keyboard,./recording/79_ʧɪnʤəp.wav,list3,ʧɪnʤəp,sw,cvc,chin,y,1,0.825,0.515151515,0.499500178,462.499822,462.499822,462.499822
79,1,9/6/19,9/6/19 19:21,12:21:40,3.0.3.43,SRBOX,SRBOX,18,3,2,1,counterBalance3,135,k,y,y,SRBOX,3000,4179257,4178298,1,948,4179246,Procedure1,Keyboard,./recording/79_rɪskɛl.wav,list3,rɪskɛl,ss,cvcc,risk,y,1,0.825,0.787878788,0.441955454,506.044546,506.044546,506.044546
79,1,9/6/19,9/6/19 19:21,12:21:40,3.0.3.43,SRBOX,SRBOX,18,3,2,1,counterBalance3,136,k,y,y,SRBOX,3000,4183501,4182481,1,1009,4183490,Procedure1,SRBOX,./recording/79_daɹkəp.wav,list3,daɹkəp,sw,cvc,dark,y,1,0.825,0.878787879,0.483409725,525.590275,525.590275,525.590275
79,1,9/6/19,9/6/19 19:21,12:21:40,3.0.3.43,SRBOX,SRBOX,18,3,2,1,counterBalance3,142,th,n,y,SRBOX,3000,4205977,4205014,1,959,4205973,Procedure1,SRBOX,./recording/79_stɛpθəm.wav,list3,stɛpθəm,sw,cvc,step,y,1,0.825,0.909090909,0.586941219,372.058781,372.058781,372.058781
79,1,9/6/19,9/6/19 19:21,12:21:40,3.0.3.43,SRBOX,SRBOX,18,3,2,1,counterBalance3,143,p,y,y,SRBOX,3000,4210127,4209198,1,929,4210127,Procedure1,SRBOX,./recording/79_pʌɫpən.wav,list3,pʌɫpən,sw,cvcc,pulp,y,1,0.825,0.651515152,0.421217752,507.782248,507.782248,507.782248
79,1,9/6/19,9/6/19 19:21,12:21:40,3.0.3.43,SRBOX,SRBOX,18,3,2,1,counterBalance3,144,ch,n,y,SRBOX,3000,4214475,4213331,1,1139,4214470,Procedure1,SRBOX,./recording/79_fɹɛntʃɔɪb.wav,list3,fɹɛntʃɔɪb,ss,cvcc,french,friend,0,0.825,0.121212121,0.425364063,713.635937,685.6954607,1225.644106
79,1,9/6/19,9/6/19 19:21,12:21:40,3.0.3.43,SRBOX,SRBOX,18,3,2,1,counterBalance3,145,k,y,y,SRBOX,3000,4220698,4217698,,0,0,Procedure1,,,list3,kʌskɪv,ss,cvc,cuss,n,0,0.825,0.136363636,0.440452309,-440.452309,-440.452309,-440.452309
79,1,9/6/19,9/6/19 19:21,12:21:40,3.0.3.43,SRBOX,SRBOX,18,3,2,1,counterBalance3,149,k,y,y,SRBOX,3000,4232146,4231114,1,1030,4232144,Procedure1,SRBOX,./recording/79_dɛskəp.wav,list3,dɛskəp,sw,cvcc,desk,y,1,0.825,0.803030303,0.505215414,524.784586,524.784586,524.784586
79,1,9/6/19,9/6/19 19:21,12:21:40,3.0.3.43,SRBOX,SRBOX,18,3,2,1,counterBalance3,151,ch,n,y,SRBOX,3000,4240817,4239714,1,1091,4240805,Procedure1,Keyboard,./recording/79_bɹʌntʃəp.wav,list3,bɹʌntʃəp,sw,cvcc,brunch,y,1,0.825,0.272727273,0.354925173,736.074827,736.074827,736.074827
79,1,9/6/19,9/6/19 19:21,12:21:40,3.0.3.43,SRBOX,SRBOX,18,3,2,1,counterBalance3,152,k,y,y,SRBOX,3000,4245494,4244031,1,1461,4245492,Procedure1,SRBOX,./recording/79_dʌskəʤ.wav,list3,dʌskəʤ,sw,cvcc,dusk,y,1,0.825,0.484848485,0.571603642,889.396358,889.396358,889.396358
79,1,9/6/19,9/6/19 19:21,12:21:40,3.0.3.43,SRBOX,SRBOX,18,3,2,1,counterBalance3,162,p,y,y,SRBOX,3000,4279071,4277864,1,1207,4279071,Procedure1,SRBOX,./recording/79_slæmpoʊʃ.wav,list3,slæmpoʊʃ,ss,cvc,slam,y,1,0.825,0.560606061,0.508322894,698.677106,698.677106,698.677106
79,1,9/6/19,9/6/19 19:21,12:21:40,3.0.3.43,SRBOX,SRBOX,18,3,2,1,counterBalance3,163,s,y,y,SRBOX,3000,4285281,4282281,,0,0,Procedure1,,,list3,kænsuf,ss,cvc,can,n,0,0.825,0.545454545,0.356400755,-356.400755,-356.400755,-356.400755
79,1,9/6/19,9/6/19 19:21,12:21:40,3.0.3.43,SRBOX,SRBOX,18,3,2,1,counterBalance3,164,th,n,y,SRBOX,3000,4286276,4285381,1,889,4286270,Procedure1,SRBOX,./recording/79_rʌnθəm.wav,list3,rʌnθəm,sw,cvc,run,y,1,0.825,0.939393939,0.451263769,437.736231,437.736231,437.736231
79,1,9/6/19,9/6/19 19:21,12:21:40,3.0.3.43,SRBOX,SRBOX,18,3,2,1,counterBalance3,172,dz,n,y,SRBOX,3000,4316898,4313898,,0,0,Procedure1,,,list3,dʌnʤəb,sw,cvc,done,n,0,0.825,0.424242424,0.30623749,-306.23749,-306.23749,-306.23749
79,1,9/6/19,9/6/19 19:21,12:21:40,3.0.3.43,SRBOX,SRBOX,18,3,2,1,counterBalance3,174,ch,n,y,SRBOX,3000,4320996,4320098,1,893,4320991,Procedure1,SRBOX,./recording/79_fʌntʃeɪθ.wav,list3,fʌntʃeɪθ,ss,cvc,fun,y,1,0.825,0.712121212,0.413374576,479.625424,479.625424,479.625424
79,1,9/6/19,9/6/19 19:21,12:21:40,3.0.3.43,SRBOX,SRBOX,18,3,2,1,counterBalance3,175,th,n,y,SRBOX,3000,4325467,4324231,1,1223,4325454,Procedure1,Keyboard,./recording/79_tɛlθəm.wav,list3,tɛlθəm,sw,cvc,tell,y,1,0.825,0.409090909,0.421384398,801.615602,801.615602,801.615602
79,1,9/6/19,9/6/19 19:21,12:21:40,3.0.3.43,SRBOX,SRBOX,18,3,2,1,counterBalance3,176,v,n,y,SRBOX,3000,4329826,4328698,1,1126,4329824,Procedure1,SRBOX,./recording/79_sɛɫvən.wav,list3,sɛɫvən,sw,cvc,sell,y,1,0.825,0.439393939,0.419183035,706.816965,706.816965,706.816965
79,1,9/6/19,9/6/19 19:21,12:21:40,3.0.3.43,SRBOX,SRBOX,18,3,2,1,counterBalance3,178,ch,n,y,SRBOX,3000,4337446,4336148,1,1284,4337432,Procedure1,SRBOX,./recording/79_pɛntʃɔɪb.wav,list3,pɛntʃɔɪb,ss,cvc,pen,y,1,0.825,0.681818182,0.409303163,874.696837,874.696837,874.696837
79,1,9/6/19,9/6/19 19:21,12:21:40,3.0.3.43,SRBOX,SRBOX,18,3,2,1,counterBalance3,179,p,y,y,SRBOX,3000,4343648,4340648,,0,0,Procedure1,,,list3,pælpəb,sw,cvc,pal,n,0,0.825,0.075757576,0.356294998,-356.294998,-356.294998,-356.294998
79,1,9/6/19,9/6/19 19:21,12:21:40,3.0.3.43,SRBOX,SRBOX,18,3,2,1,counterBalance3,181,k,y,y,SRBOX,3000,4347855,4346814,1,1029,4347843,Procedure1,Keyboard,./recording/79_tʌŋkɛm.wav,list3,tʌŋkɛm,ss,cvc,tongue,y,1,0.825,0.5,0.403370185,625.629815,625.629815,625.629815
79,1,9/6/19,9/6/19 19:21,12:21:40,3.0.3.43,SRBOX,SRBOX,18,3,2,1,counterBalance3,189,ch,n,y,SRBOX,3000,4377285,4376114,1,1159,4377273,Procedure1,SRBOX,./recording/79_tɹɛntʃæm.wav,list3,tɹɛntʃæm,ss,cvcc,trench,y,1,0.825,0.515151515,0.388604915,770.395085,770.395085,770.395085
79,1,9/6/19,9/6/19 19:21,12:21:40,3.0.3.43,SRBOX,SRBOX,18,3,2,1,counterBalance3,190,th,n,y,SRBOX,3000,4381496,4380481,1,1010,4381491,Procedure1,Keyboard,./recording/79_klɪfθəm.wav,list3,klɪfθəm,sw,cvc,cliff,y,1,0.825,0.787878788,0.453734318,556.265682,556.265682,556.265682
79,1,9/6/19,9/6/19 19:21,12:21:40,3.0.3.43,SRBOX,SRBOX,18,3,2,1,counterBalance3,192,s,y,y,SRBOX,3000,4388797,4387831,1,965,4388796,Procedure1,SRBOX,./recording/79_tɪnsæf.wav,list3,tɪnsæf,ss,cvc,tin,y,1,0.825,0.575757576,0.300605426,664.394574,664.394574,664.394574
79,1,9/6/19,9/6/19 19:21,12:21:40,3.0.3.43,SRBOX,SRBOX,18,3,2,1,counterBalance3,194,v,n,y,SRBOX,3000,4396106,4395081,1,1019,4396100,Procedure1,SRBOX,./recording/79_twɛɫvən.wav,list3,twɛɫvən,sw,cvcc,twelve,y,1,0.825,0.863636364,0.481589822,537.410178,537.410178,537.410178
79,1,9/6/19,9/6/19 19:21,12:21:40,3.0.3.43,SRBOX,SRBOX,18,3,2,1,counterBalance3,200,k,y,y,SRBOX,3000,4417290,4416164,1,1125,4417289,Procedure1,Keyboard,./recording/79_flæskauʤ.wav,list3,flæskauʤ,ss,cvcc,flask,y,1,0.825,0.545454545,0.60979712,515.20288,515.20288,515.20288
80,1,9/13/19,9/13/19 17:59,10:59:04,3.0.3.43,SRBOX,SRBOX,18,4,2,1,counterBalance4,1,v,n,y,SRBOX,3000,3897859,3896421,1,1434,3897855,Procedure1,Keyboard,./recording/80_daɫvuɫ.wav,list4,daɫvuɫ,ss,cvc,doll,y,1,0.4875,0.560606061,0.299485113,1134.514887,1134.514887,1134.514887
80,1,9/13/19,9/13/19 17:59,10:59:04,3.0.3.43,SRBOX,SRBOX,18,4,2,1,counterBalance4,9,p,y,y,SRBOX,3000,3927752,3926188,1,1562,3927750,Procedure1,Keyboard,./recording/80_skælpæb.wav,list4,skælpæb,ss,cvcc,scalp,y,1,0.4875,0.727272727,0.675769265,886.230735,886.230735,886.230735
80,1,9/13/19,9/13/19 17:59,10:59:04,3.0.3.43,SRBOX,SRBOX,18,4,2,1,counterBalance4,10,s,y,y,SRBOX,3000,3932188,3931005,1,1181,3932186,Procedure1,Keyboard,./recording/80_tʃænsəf.wav,list4,tʃænsəf,sw,cvcc,chance,y,1,0.4875,0.636363636,0.470105266,710.894734,710.894734,710.894734
80,1,9/13/19,9/13/19 17:59,10:59:04,3.0.3.43,SRBOX,SRBOX,18,4,2,1,counterBalance4,15,ch,n,y,SRBOX,3000,3950012,3948955,1,1052,3950007,Procedure1,SRBOX,./recording/80_tɛntʃæm.wav,list4,tɛntʃæm,ss,cvc,ten,y,1,0.4875,0.5,0.405536344,646.463656,646.463656,646.463656
80,1,9/13/19,9/13/19 17:59,10:59:04,3.0.3.43,SRBOX,SRBOX,18,4,2,1,counterBalance4,16,th,n,y,SRBOX,3000,3956271,3953271,,0,0,Procedure1,,,list4,dɛpθeɪm,ss,cvcc,depth,n,0,0.4875,0.818181818,0.241383025,-241.383025,-241.383025,-241.383025
80,1,9/13/19,9/13/19 17:59,10:59:04,3.0.3.43,SRBOX,SRBOX,18,4,2,1,counterBalance4,19,th,n,y,SRBOX,3000,3965751,3963655,1,2092,3965747,Procedure1,Keyboard,./recording/80_wɪdθəm.wav,list4,wɪdθəm,sw,cvcc,width,y,1,0.4875,0.424242424,0.452556921,1639.443079,1639.443079,1639.443079
80,1,9/13/19,9/13/19 17:59,10:59:04,3.0.3.43,SRBOX,SRBOX,18,4,2,1,counterBalance4,20,k,y,y,SRBOX,3000,3970821,3968955,1,1852,3970807,Procedure1,SRBOX,./recording/80_tʌskəv.wav,list4,tʌskəv,sw,cvcc,tusk,y,1,0.4875,0.681818182,0.433919659,1418.080341,1418.080341,1418.080341
80,1,9/13/19,9/13/19 17:59,10:59:04,3.0.3.43,SRBOX,SRBOX,18,4,2,1,counterBalance4,26,ch,n,y,SRBOX,3000,3994688,3991688,,0,0,Procedure1,,,list4,kɹʌntʃeɪθ,ss,cvcc,crunch,n,0,0.4875,0.757575758,0.366088213,-366.088213,-366.088213,-366.088213
80,1,9/13/19,9/13/19 17:59,10:59:04,3.0.3.43,SRBOX,SRBOX,18,4,2,1,counterBalance4,27,dz,n,y,SRBOX,3000,3996672,3994771,1,1891,3996662,Procedure1,SRBOX,./recording/80_laʊndʒɔɪt.wav,list4,laʊndʒɔɪt,ss,cvcc,lounge,y,1,0.4875,0.787878788,0.510902365,1380.097635,1380.097635,1380.097635
80,1,9/13/19,9/13/19 17:59,10:59:04,3.0.3.43,SRBOX,SRBOX,18,4,2,1,counterBalance4,29,ch,n,y,SRBOX,3000,4004202,4002955,1,1235,4004190,Procedure1,SRBOX,./recording/80_sʌntʃəb.wav,list4,sʌntʃəb,sw,cvc,sun,y,1,0.4875,0.863636364,0.474834101,760.165899,760.165899,760.165899
80,1,9/13/19,9/13/19 17:59,10:59:04,3.0.3.43,SRBOX,SRBOX,18,4,2,1,counterBalance4,30,ch,n,y,SRBOX,3000,4008624,4007421,1,1189,4008610,Procedure1,SRBOX,./recording/80_lʌntʃəb.wav,list4,lʌntʃəb,sw,cvcc,lunch,y,1,0.4875,0.696969697,0.352418225,836.581775,836.581775,836.581775
80,1,9/13/19,9/13/19 17:59,10:59:04,3.0.3.43,SRBOX,SRBOX,18,4,2,1,counterBalance4,31,dz,n,y,SRBOX,3000,4014855,4011855,,0,0,Procedure1,,,list4,fɹɪndʒəp,sw,cvcc,fringe,n,0,0.4875,0.393939394,0.504812773,-504.812773,-504.812773,-504.812773
80,1,9/13/19,9/13/19 17:59,10:59:04,3.0.3.43,SRBOX,SRBOX,18,4,2,1,counterBalance4,34,ch,n,y,SRBOX,3000,4022288,4021088,1,1191,4022279,Procedure1,SRBOX,./recording/80_blæntʃəb.wav,list4,blæntʃəb,sw,cvcc,blanch,bland,0,0.4875,0.136363636,0,1191,1058.900893,1599.828352
80,1,9/13/19,9/13/19 17:59,10:59:04,3.0.3.43,SRBOX,SRBOX,18,4,2,1,counterBalance4,40,v,n,y,SRBOX,3000,4045405,4042405,,0,0,Procedure1,,,list4,saɫvuɫ,ss,cvcc,solve,n,0,0.4875,0.272727273,0.556430897,-556.430897,-556.430897,-556.430897
80,1,9/13/19,9/13/19 17:59,10:59:04,3.0.3.43,SRBOX,SRBOX,18,4,2,1,counterBalance4,41,dz,n,y,SRBOX,3000,4048505,4045505,,0,0,Procedure1,,,list4,bʌnʤəm,sw,cvc,bun,n,0,0.4875,0.196969697,0.344165012,-344.165012,-344.165012,-344.165012
80,1,9/13/19,9/13/19 17:59,10:59:04,3.0.3.43,SRBOX,SRBOX,18,4,2,1,counterBalance4,42,k,y,y,SRBOX,3000,4049761,4048571,1,1185,4049756,Procedure1,SRBOX,./recording/80_kɪskəl.wav,list4,kɪskəl,sw,cvc,kiss,y,1,0.4875,0.909090909,0.521944736,663.055264,663.055264,663.055264
80,1,9/13/19,9/13/19 17:59,10:59:04,3.0.3.43,SRBOX,SRBOX,18,4,2,1,counterBalance4,43,k,y,y,SRBOX,3000,4054302,4053005,1,1281,4054286,Procedure1,SRBOX,./recording/80_plʌskəv.wav,list4,plʌskəv,sw,cvc,plus,y,1,0.4875,0.666666667,0.453493135,827.506865,827.506865,827.506865
80,1,9/13/19,9/13/19 17:59,10:59:04,3.0.3.43,SRBOX,SRBOX,18,4,2,1,counterBalance4,46,p,y,y,SRBOX,3000,4066721,4063721,,0,0,Procedure1,,,list4,nʌmpədʒ,sw,cvc,numb,n,0,0.4875,0.53030303,0.497173148,-497.173148,-497.173148,-497.173148
80,1,9/13/19,9/13/19 17:59,10:59:04,3.0.3.43,SRBOX,SRBOX,18,4,2,1,counterBalance4,47,dz,n,y,SRBOX,3000,4069805,4066805,,0,0,Procedure1,,,list4,gɹʌnʤam,ss,cvcc,grunge,n,0,0.4875,0.454545455,0.452874936,-452.874936,-452.874936,-452.874936
80,1,9/13/19,9/13/19 17:59,10:59:04,3.0.3.43,SRBOX,SRBOX,18,4,2,1,counterBalance4,48,th,n,y,SRBOX,3000,4071008,4069905,1,1088,4070993,Procedure1,SRBOX,./recording/80_kɪdθəm.wav,list4,kɪdθəm,sw,cvc,kid,y,1,0.4875,0.863636364,0.381225407,706.774593,706.774593,706.774593
80,1,9/13/19,9/13/19 17:59,10:59:04,3.0.3.43,SRBOX,SRBOX,18,4,2,1,counterBalance4,50,th,n,y,SRBOX,3000,4080321,4077321,,0,0,Procedure1,,,list4,fɪfθəm,sw,cvcc,fifth,n,0,0.4875,0.560606061,0.470288923,-470.288923,-470.288923,-470.288923
80,1,9/13/19,9/13/19 17:59,10:59:04,3.0.3.43,SRBOX,SRBOX,18,4,2,1,counterBalance4,54,th,n,y,SRBOX,3000,4094405,4091405,,0,0,Procedure1,,,list4,stɛlθəm,sw,cvcc,stealth,n,0,0.4875,0.5,0.539791708,-539.791708,-539.791708,-539.791708
80,1,9/13/19,9/13/19 17:59,10:59:04,3.0.3.43,SRBOX,SRBOX,18,4,2,1,counterBalance4,62,p,y,y,SRBOX,3000,4117660,4116105,1,1548,4117653,Procedure1,SRBOX,./recording/80_skʌɫpɔɪn.wav,list4,skʌɫpɔɪn,ss,cvc,skull,y,1,0.4875,0.5,0.520070204,1027.929796,1027.929796,1027.929796
80,1,9/13/19,9/13/19 17:59,10:59:04,3.0.3.43,SRBOX,SRBOX,18,4,2,1,counterBalance4,64,k,y,y,SRBOX,3000,4127021,4124021,,0,0,Procedure1,,,list4,fɪɫkæθ,ss,cvc,fill,n,0,0.4875,0.318181818,0.295811523,-295.811523,-295.811523,-295.811523
80,1,9/13/19,9/13/19 17:59,10:59:04,3.0.3.43,SRBOX,SRBOX,18,4,2,1,counterBalance4,68,k,y,y,SRBOX,3000,4139478,4137805,1,1662,4139467,Procedure1,SRBOX,./recording/80_gæskauʤ.wav,list4,gæskauʤ,ss,cvc,gas,y,1,0.4875,0.848484848,0.576197745,1085.802255,1085.802255,1085.802255
80,1,9/13/19,9/13/19 17:59,10:59:04,3.0.3.43,SRBOX,SRBOX,18,4,2,1,counterBalance4,70,ch,n,y,SRBOX,3000,4148805,4145805,,0,0,Procedure1,,,list4,gɔntʃəθ,sw,cvc,gone,n,0,0.4875,0.575757576,0.353751691,-353.751691,-353.751691,-353.751691
80,1,9/13/19,9/13/19 17:59,10:59:04,3.0.3.43,SRBOX,SRBOX,18,4,2,1,counterBalance4,71,k,y,y,SRBOX,3000,4150267,4148905,1,1353,4150258,Procedure1,SRBOX,./recording/80_tɹʌŋkɛm.wav,list4,tɹʌŋkɛm,ss,cvcc,trunk,y,1,0.4875,0.757575758,0.484556236,868.443764,868.443764,868.443764
80,1,9/13/19,9/13/19 17:59,10:59:04,3.0.3.43,SRBOX,SRBOX,18,4,2,1,counterBalance4,72,ch,n,y,SRBOX,3000,4156455,4153455,,0,0,Procedure1,,,list4,plæntʃəb,sw,cvcc,plant,n,0,0.4875,0.318181818,0.389654582,-389.654582,-389.654582,-389.654582
80,1,9/13/19,9/13/19 17:59,10:59:04,3.0.3.43,SRBOX,SRBOX,18,4,2,1,counterBalance4,73,p,y,y,SRBOX,3000,4157961,4156555,1,1387,4157942,Procedure1,SRBOX,./recording/80_tʃæmpəʃ.wav,list4,tʃæmpəʃ,sw,cvcc,champ,y,1,0.4875,0.5,0.436133314,950.866686,950.866686,950.866686
80,1,9/13/19,9/13/19 17:59,10:59:04,3.0.3.43,SRBOX,SRBOX,18,4,2,1,counterBalance4,75,dz,n,y,SRBOX,3000,4167255,4164255,,0,0,Procedure1,,,list4,lʌndʒəb,sw,cvcc,lunge,n,0,0.4875,0.621212121,0.401736976,-401.736976,-401.736976,-401.736976
80,1,9/13/19,9/13/19 17:59,10:59:04,3.0.3.43,SRBOX,SRBOX,18,4,2,1,counterBalance4,76,k,y,y,SRBOX,3000,4168669,4167321,1,1333,4168654,Procedure1,SRBOX,./recording/80_glæskəθ.wav,list4,glæskəθ,sw,cvc,glass,y,1,0.4875,0.893939394,0.532761297,800.238703,800.238703,800.238703
80,1,9/13/19,9/13/19 17:59,10:59:04,3.0.3.43,SRBOX,SRBOX,18,4,2,1,counterBalance4,78,sh,n,y,SRBOX,3000,4177955,4174955,,0,0,Procedure1,,,list4,hɔɹʃɔb,ss,cvcc,harsh,n,0,0.4875,0.575757576,0.455218011,-455.218011,-455.218011,-455.218011
80,1,9/13/19,9/13/19 17:59,10:59:04,3.0.3.43,SRBOX,SRBOX,18,4,2,1,counterBalance4,80,p,y,y,SRBOX,3000,4182402,4181105,1,1291,4182396,Procedure1,Keyboard,./recording/80_pʌmpədʒ.wav,list4,pʌmpədʒ,sw,cvcc,pump,y,1,0.4875,0.636363636,0.435283953,855.716047,855.716047,855.716047
80,1,9/13/19,9/13/19 17:59,10:59:04,3.0.3.43,SRBOX,SRBOX,18,4,2,1,counterBalance4,82,k,y,y,SRBOX,3000,4190915,4188688,1,2225,4190913,Procedure1,SRBOX,./recording/80_fʌskoʊʤ.wav,list4,fʌskoʊʤ,ss,cvc,fuss,y,1,0.4875,0.424242424,0.467101085,1757.898915,933.1172579,1757.898915
80,1,9/13/19,9/13/19 17:59,10:59:04,3.0.3.43,SRBOX,SRBOX,18,4,2,1,counterBalance4,86,k,y,y,SRBOX,3000,4206475,4205355,1,1108,4206463,Procedure1,SRBOX,./recording/80_tæskəθ.wav,list4,tæskəθ,sw,cvcc,task,y,1,0.4875,0.833333333,0.431440329,676.559671,676.559671,676.559671
80,1,9/13/19,9/13/19 17:59,10:59:04,3.0.3.43,SRBOX,SRBOX,18,4,2,1,counterBalance4,89,dz,n,y,SRBOX,3000,4218281,4217205,1,1074,4218279,Procedure1,SRBOX,./recording/80_pɪnʤup.wav,list4,pɪnʤup,ss,cvc,pin,y,1,0.4875,0.712121212,0.348615689,725.384311,725.384311,725.384311
80,1,9/13/19,9/13/19 17:59,10:59:04,3.0.3.43,SRBOX,SRBOX,18,4,2,1,counterBalance4,96,s,y,y,SRBOX,3000,4242988,4239988,,0,0,Procedure1,,,list4,ɹɪnsæf,ss,cvcc,rinse,n,0,0.4875,0.606060606,0.448494387,-448.494387,-448.494387,-448.494387
80,1,9/13/19,9/13/19 17:59,10:59:04,3.0.3.43,SRBOX,SRBOX,18,4,2,1,counterBalance4,97,dz,n,y,SRBOX,3000,4246071,4243071,,0,0,Procedure1,,,list4,kɹɪnʤəp,sw,cvcc,cringe,n,0,0.4875,0.681818182,0.393283131,-393.283131,-393.283131,-393.283131
80,1,9/13/19,9/13/19 17:59,10:59:04,3.0.3.43,SRBOX,SRBOX,18,4,2,1,counterBalance4,100,k,y,y,SRBOX,3000,4253341,4252321,1,1019,4253340,Procedure1,Keyboard,./recording/80_pɹɛskəp.wav,list4,pɹɛskəp,sw,cvc,press,y,1,0.4875,0.636363636,0.395719294,623.280706,623.280706,623.280706
80,1,9/13/19,9/13/19 17:59,10:59:04,3.0.3.43,SRBOX,SRBOX,18,4,2,1,counterBalance4,101,k,y,y,SRBOX,3000,4258180,4256555,1,1615,4258170,Procedure1,SRBOX,./recording/80_θæŋkəf.wav,list4,θæŋkəf,sw,cvcc,thank,y,1,0.4875,0.636363636,0,1615,1615,1615
80,1,9/13/19,9/13/19 17:59,10:59:04,3.0.3.43,SRBOX,SRBOX,18,4,2,1,counterBalance4,102,ch,n,y,SRBOX,3000,4263201,4261388,1,1806,4263194,Procedure1,Keyboard,./recording/80_tʌntʃeɪp.wav,list4,tʌntʃeɪp,ss,cvc,ton,tounge,0,0.4875,0.196969697,0.404779741,1401.220259,933.1172579,1290.392155
80,1,9/13/19,9/13/19 17:59,10:59:04,3.0.3.43,SRBOX,SRBOX,18,4,2,1,counterBalance4,104,k,y,y,SRBOX,3000,4272521,4269521,,0,0,Procedure1,,,list4,gæŋkuf,ss,cvc,gang,n,0,0.4875,0.409090909,0.540895227,-540.895227,-540.895227,-540.895227
80,1,9/13/19,9/13/19 17:59,10:59:04,3.0.3.43,SRBOX,SRBOX,18,4,2,1,counterBalance4,106,k,y,y,SRBOX,3000,4277219,4275705,1,1505,4277210,Procedure1,SRBOX,./recording/80_staɹkaup.wav,list4,staɹkaup,ss,cvc,star,y,1,0.4875,0.727272727,0.522986429,982.013571,982.013571,982.013571
80,1,9/13/19,9/13/19 17:59,10:59:04,3.0.3.43,SRBOX,SRBOX,18,4,2,1,counterBalance4,108,k,y,y,SRBOX,3000,4286505,4283505,,0,0,Procedure1,,,list4,bʌɫkæθ,ss,cvcc,bulk,n,0,0.4875,0.681818182,0.506364948,-506.364948,-506.364948,-506.364948
80,1,9/13/19,9/13/19 17:59,10:59:04,3.0.3.43,SRBOX,SRBOX,18,4,2,1,counterBalance4,109,th,n,y,SRBOX,3000,4289571,4286571,,0,0,Procedure1,,,list4,mʌnθum,ss,cvcc,month,n,0,0.4875,0.515151515,0.433545406,-433.545406,-433.545406,-433.545406
80,1,9/13/19,9/13/19 17:59,10:59:04,3.0.3.43,SRBOX,SRBOX,18,4,2,1,counterBalance4,112,p,y,y,SRBOX,3000,4298821,4295821,,0,0,Procedure1,,,list4,lʌmpædʒ,ss,cvcc,lump,n,0,0.4875,0.772727273,0.55565574,-555.65574,-555.65574,-555.65574
80,1,9/13/19,9/13/19 17:59,10:59:04,3.0.3.43,SRBOX,SRBOX,18,4,2,1,counterBalance4,114,k,y,y,SRBOX,3000,4303651,4301988,1,1661,4303649,Procedure1,SRBOX,./recording/80_mɪɫkæθ.wav,list4,mɪɫkæθ,ss,cvcc,milk,y,1,0.4875,0.939393939,0.628986168,1032.013832,1032.013832,1032.013832
80,1,9/13/19,9/13/19 17:59,10:59:04,3.0.3.43,SRBOX,SRBOX,18,4,2,1,counterBalance4,115,s,y,y,SRBOX,3000,4308525,4306905,1,1606,4308511,Procedure1,SRBOX,./recording/80_gʌɫsɔm.wav,list4,gʌɫsɔm,ss,cvc,gull,gaul,0,0.4875,0.196969697,0.336258443,1269.741557,933.1172579,1282.432367
80,1,9/13/19,9/13/19 17:59,10:59:04,3.0.3.43,SRBOX,SRBOX,18,4,2,1,counterBalance4,116,dz,n,y,SRBOX,3000,4314738,4311738,,0,0,Procedure1,,,list4,taʊnʤət,sw,cvc,town,n,0,0.4875,0.803030303,0.424324005,-424.324005,-424.324005,-424.324005
80,1,9/13/19,9/13/19 17:59,10:59:04,3.0.3.43,SRBOX,SRBOX,18,4,2,1,counterBalance4,117,k,y,y,SRBOX,3000,4316436,4314821,1,1605,4316426,Procedure1,SRBOX,./recording/80_dʌɫkəθ.wav,list4,dʌɫkəθ,sw,cvc,dull,y,1,0.4875,0.181818182,0.455528994,1149.471006,1149.471006,1149.471006
80,1,9/13/19,9/13/19 17:59,10:59:04,3.0.3.43,SRBOX,SRBOX,18,4,2,1,counterBalance4,118,k,y,y,SRBOX,3000,4321491,4319655,1,1831,4321486,Procedure1,Keyboard,./recording/80_hʌskiv.wav,list4,hʌskiv,ss,cvcc,husk,y,1,0.4875,0.515151515,0.583994671,1247.005329,1247.005329,1247.005329
80,1,9/13/19,9/13/19 17:59,10:59:04,3.0.3.43,SRBOX,SRBOX,18,4,2,1,counterBalance4,122,p,y,y,SRBOX,3000,4338921,4335921,,0,0,Procedure1,,,list4,skʌmpədʒ,sw,cvc,skum,n,0,0.4875,0.333333333,0.539234481,-539.234481,-539.234481,-539.234481
80,1,9/13/19,9/13/19 17:59,10:59:04,3.0.3.43,SRBOX,SRBOX,18,4,2,1,counterBalance4,124,s,y,y,SRBOX,3000,4343471,4342105,1,1360,4343465,Procedure1,SRBOX,./recording/80_pʌɫsəm.wav,list4,pʌɫsəm,sw,cvcc,pulse,pull,0,0.4875,0.333333333,0.419576718,940.423282,1058.900893,791.62936
80,1,9/13/19,9/13/19 17:59,10:59:04,3.0.3.43,SRBOX,SRBOX,18,4,2,1,counterBalance4,128,ch,n,y,SRBOX,3000,4362238,4359238,,0,0,Procedure1,,,list4,stɔntʃeθ,ss,cvcc,staunch,n,0,0.4875,0.212121212,0.573327227,-573.327227,-573.327227,-573.327227
80,1,9/13/19,9/13/19 17:59,10:59:04,3.0.3.43,SRBOX,SRBOX,18,4,2,1,counterBalance4,129,sh,n,y,SRBOX,3000,4363832,4362321,1,1510,4363831,Procedure1,SRBOX,./recording/80_skɔɹʃəb.wav,list4,skɔɹʃəb,sw,cvc,scar,y,1,0.4875,0.909090909,0.424948006,1085.051994,1085.051994,1085.051994
80,1,9/13/19,9/13/19 17:59,10:59:04,3.0.3.43,SRBOX,SRBOX,18,4,2,1,counterBalance4,133,dz,n,y,SRBOX,3000,4377761,4376321,1,1425,4377746,Procedure1,SRBOX,./recording/80_ʧɪnʤeɪp.wav,list4,ʧɪnʤeɪp,ss,cvc,chin,y,1,0.4875,0.515151515,0.521764559,903.235441,903.235441,903.235441
80,1,9/13/19,9/13/19 17:59,10:59:04,3.0.3.43,SRBOX,SRBOX,18,4,2,1,counterBalance4,135,k,y,y,SRBOX,3000,4385361,4384088,1,1263,4385351,Procedure1,Keyboard,./recording/80_rɪskəl.wav,list4,rɪskəl,sw,cvcc,risk,y,1,0.4875,0.787878788,0.453365935,809.634065,809.634065,809.634065
80,1,9/13/19,9/13/19 17:59,10:59:04,3.0.3.43,SRBOX,SRBOX,18,4,2,1,counterBalance4,136,k,y,y,SRBOX,3000,4391571,4388571,,0,0,Procedure1,,,list4,daɹkaup,ss,cvc,dark,n,0,0.4875,0.878787879,0.509416613,-509.416613,-509.416613,-509.416613
80,1,9/13/19,9/13/19 17:59,10:59:04,3.0.3.43,SRBOX,SRBOX,18,4,2,1,counterBalance4,142,th,n,y,SRBOX,3000,4408710,4407138,1,1568,4408706,Procedure1,Keyboard,./recording/80_stɛpθeɪm.wav,list4,stɛpθeɪm,ss,cvc,step,y,1,0.4875,0.909090909,0.639046668,928.953332,928.953332,928.953332
80,1,9/13/19,9/13/19 17:59,10:59:04,3.0.3.43,SRBOX,SRBOX,18,4,2,1,counterBalance4,143,p,y,y,SRBOX,3000,4414921,4411921,,0,0,Procedure1,,,list4,pʌɫpɔɪn,ss,cvcc,pulp,n,0,0.4875,0.651515152,0.515686402,-515.686402,-515.686402,-515.686402
80,1,9/13/19,9/13/19 17:59,10:59:04,3.0.3.43,SRBOX,SRBOX,18,4,2,1,counterBalance4,144,ch,n,y,SRBOX,3000,4417988,4414988,,0,0,Procedure1,,,list4,fɹɛntʃəb,sw,cvcc,french,n,0,0.4875,0.121212121,0.444853171,-444.853171,-444.853171,-444.853171
80,1,9/13/19,9/13/19 17:59,10:59:04,3.0.3.43,SRBOX,SRBOX,18,4,2,1,counterBalance4,145,k,y,y,SRBOX,3000,4421071,4418071,,0,0,Procedure1,,,list4,kʌskəv,sw,cvc,cuss,n,0,0.4875,0.136363636,0.381868622,-381.868622,-381.868622,-381.868622
80,1,9/13/19,9/13/19 17:59,10:59:04,3.0.3.43,SRBOX,SRBOX,18,4,2,1,counterBalance4,149,k,y,y,SRBOX,3000,4432201,4430421,1,1779,4432200,Procedure1,SRBOX,./recording/80_dɛskɛp.wav,list4,dɛskɛp,ss,cvcc,desk,y,1,0.4875,0.803030303,0.59202447,1186.97553,1186.97553,1186.97553
80,1,9/13/19,9/13/19 17:59,10:59:04,3.0.3.43,SRBOX,SRBOX,18,4,2,1,counterBalance4,151,ch,n,y,SRBOX,3000,4441521,4438521,,0,0,Procedure1,,,list4,bɹʌntʃeɪp,ss,cvcc,brunch,n,0,0.4875,0.272727273,0.251207392,-251.207392,-251.207392,-251.207392
80,1,9/13/19,9/13/19 17:59,10:59:04,3.0.3.43,SRBOX,SRBOX,18,4,2,1,counterBalance4,152,k,y,y,SRBOX,3000,4444605,4441605,,0,0,Procedure1,,,list4,dʌskoʊʤ,ss,cvcc,dusk,n,0,0.4875,0.484848485,0.542573696,-542.573696,-542.573696,-542.573696
80,1,9/13/19,9/13/19 17:59,10:59:04,3.0.3.43,SRBOX,SRBOX,18,4,2,1,counterBalance4,162,p,y,y,SRBOX,3000,4476971,4473971,,0,0,Procedure1,,,list4,slæmpəʃ,sw,cvc,slam,n,0,0.4875,0.560606061,0.49216454,-492.16454,-492.16454,-492.16454
80,1,9/13/19,9/13/19 17:59,10:59:04,3.0.3.43,SRBOX,SRBOX,18,4,2,1,counterBalance4,163,s,y,y,SRBOX,3000,4480071,4477071,,0,0,Procedure1,,,list4,kænsəf,sw,cvc,can,n,0,0.4875,0.545454545,0.339995163,-339.995163,-339.995163,-339.995163
80,1,9/13/19,9/13/19 17:59,10:59:04,3.0.3.43,SRBOX,SRBOX,18,4,2,1,counterBalance4,164,th,n,y,SRBOX,3000,4481460,4480155,1,1294,4481449,Procedure1,SRBOX,./recording/80_rʌnθum.wav,list4,rʌnθum,ss,cvc,run,y,1,0.4875,0.939393939,0.461335669,832.664331,832.664331,832.664331
80,1,9/13/19,9/13/19 17:59,10:59:04,3.0.3.43,SRBOX,SRBOX,18,4,2,1,counterBalance4,172,dz,n,y,SRBOX,3000,4509255,4506255,,0,0,Procedure1,,,list4,dʌnʤeɪb,ss,cvc,done,n,0,0.4875,0.424242424,0.324398934,-324.398934,-324.398934,-324.398934
80,1,9/13/19,9/13/19 17:59,10:59:04,3.0.3.43,SRBOX,SRBOX,18,4,2,1,counterBalance4,174,ch,n,y,SRBOX,3000,4515455,4512455,,0,0,Procedure1,,,list4,fʌntʃəθ,sw,cvc,fun,n,0,0.4875,0.712121212,0.398737613,-398.737613,-398.737613,-398.737613
80,1,9/13/19,9/13/19 17:59,10:59:04,3.0.3.43,SRBOX,SRBOX,18,4,2,1,counterBalance4,175,th,n,y,SRBOX,3000,4516751,4515555,1,1196,4516751,Procedure1,SRBOX,./recording/80_tɛlθaum.wav,list4,tɛlθaum,ss,cvc,tell,y,1,0.4875,0.409090909,0.443182138,752.817862,752.817862,752.817862
80,1,9/13/19,9/13/19 17:59,10:59:04,3.0.3.43,SRBOX,SRBOX,18,4,2,1,counterBalance4,176,v,n,y,SRBOX,3000,4521731,4519955,1,1765,4521720,Procedure1,SRBOX,./recording/80_sɛɫvɔn.wav,list4,sɛɫvɔn,ss,cvc,sell,y,1,0.4875,0.439393939,0.425047338,1339.952662,1339.952662,1339.952662
80,1,9/13/19,9/13/19 17:59,10:59:04,3.0.3.43,SRBOX,SRBOX,18,4,2,1,counterBalance4,178,ch,n,y,SRBOX,3000,4529451,4528055,1,1396,4529451,Procedure1,SRBOX,./recording/80_pɛntʃəb.wav,list4,pɛntʃəb,sw,cvc,pen,y,1,0.4875,0.681818182,0.340578798,1055.421202,1055.421202,1055.421202
80,1,9/13/19,9/13/19 17:59,10:59:04,3.0.3.43,SRBOX,SRBOX,18,4,2,1,counterBalance4,179,p,y,y,SRBOX,3000,4535671,4532671,,0,0,Procedure1,,,list4,pælpæb,ss,cvc,pal,n,0,0.4875,0.075757576,0.363046369,-363.046369,-363.046369,-363.046369
80,1,9/13/19,9/13/19 17:59,10:59:04,3.0.3.43,SRBOX,SRBOX,18,4,2,1,counterBalance4,181,k,y,y,SRBOX,3000,4541855,4538855,,0,0,Procedure1,,,list4,tʌŋkəm,sw,cvc,tongue,n,0,0.4875,0.5,0.541247175,-541.247175,-541.247175,-541.247175
80,1,9/13/19,9/13/19 17:59,10:59:04,3.0.3.43,SRBOX,SRBOX,18,4,2,1,counterBalance4,189,ch,n,y,SRBOX,3000,4566555,4563555,,0,0,Procedure1,,,list4,tɹɛntʃəm,sw,cvcc,trench,n,0,0.4875,0.515151515,0.379715794,-379.715794,-379.715794,-379.715794
80,1,9/13/19,9/13/19 17:59,10:59:04,3.0.3.43,SRBOX,SRBOX,18,4,2,1,counterBalance4,190,th,n,y,SRBOX,3000,4567780,4566638,1,1133,4567771,Procedure1,SRBOX,./recording/80_klɪfθaʊm.wav,list4,klɪfθaʊm,ss,cvc,cliff,y,1,0.4875,0.787878788,0.430776581,702.223419,702.223419,702.223419
80,1,9/13/19,9/13/19 17:59,10:59:04,3.0.3.43,SRBOX,SRBOX,18,4,2,1,counterBalance4,192,s,y,y,SRBOX,3000,4575399,4574105,1,1290,4575395,Procedure1,Keyboard,./recording/80_tɪnsəf.wav,list4,tɪnsəf,sw,cvc,tin,y,1,0.4875,0.575757576,0.319123739,970.876261,970.876261,970.876261
80,1,9/13/19,9/13/19 17:59,10:59:04,3.0.3.43,SRBOX,SRBOX,18,4,2,1,counterBalance4,194,v,n,y,SRBOX,3000,4583010,4581705,1,1298,4583003,Procedure1,SRBOX,./recording/80_twɛɫvɔn.wav,list4,twɛɫvɔn,ss,cvcc,twelve,y,1,0.4875,0.863636364,0.469128936,828.871064,828.871064,828.871064
80,1,9/13/19,9/13/19 17:59,10:59:04,3.0.3.43,SRBOX,SRBOX,18,4,2,1,counterBalance4,200,k,y,y,SRBOX,3000,4604655,4601655,,0,0,Procedure1,,,list4,flæskəʤ,sw,cvcc,flask,n,0,0.4875,0.545454545,0.628591575,-628.591575,-628.591575,-628.591575
81,1,9/23/19,,15:16:38,3.0.3.43,SRBOX,SRBOX,18,1,2,1,counterBalance1,1,k,y,y,SRBOX,3000,280078,277078,,0,0,Procedure1,,,list1,flæskauʤ,ss,cvcc,flask,n,0,0.5,0.545454545,0.60979712,-609.79712,-609.79712,-609.79712
81,1,9/23/19,,15:16:38,3.0.3.43,SRBOX,SRBOX,18,1,2,1,counterBalance1,7,v,n,y,SRBOX,3000,296721,295595,1,1121,296716,Procedure1,SRBOX,./recording/81_twɛɫvən.wav,list1,twɛɫvən,sw,cvcc,twelve,y,1,0.5,0.863636364,0.481589822,639.410178,639.410178,639.410178
81,1,9/23/19,,15:16:38,3.0.3.43,SRBOX,SRBOX,18,1,2,1,counterBalance1,9,s,y,y,SRBOX,3000,304661,303045,1,1600,304645,Procedure1,SRBOX,./recording/81_tɪnsæf.wav,list1,tɪnsæf,ss,cvc,tin,y,1,0.5,0.575757576,0.300605426,1299.394574,1299.394574,1299.394574
81,1,9/23/19,,15:16:38,3.0.3.43,SRBOX,SRBOX,18,1,2,1,counterBalance1,11,th,n,y,SRBOX,3000,312107,310962,1,1145,312107,Procedure1,SRBOX,./recording/81_klɪfθəm.wav,list1,klɪfθəm,sw,cvc,cliff,y,1,0.5,0.787878788,0.453734318,691.265682,691.265682,691.265682
81,1,9/23/19,,15:16:38,3.0.3.43,SRBOX,SRBOX,18,1,2,1,counterBalance1,12,ch,n,y,SRBOX,3000,318328,315328,,0,0,Procedure1,,,list1,tɹɛntʃæm,ss,cvcc,trench,n,0,0.5,0.515151515,0.388604915,-388.604915,-388.604915,-388.604915
81,1,9/23/19,,15:16:38,3.0.3.43,SRBOX,SRBOX,18,1,2,1,counterBalance1,20,k,y,y,SRBOX,3000,340958,339978,1,980,340958,Procedure1,SRBOX,./recording/81_tʌŋkɛm.wav,list1,tʌŋkɛm,ss,cvc,tongue,y,1,0.5,0.5,0.403370185,576.629815,576.629815,576.629815
81,1,9/23/19,,15:16:38,3.0.3.43,SRBOX,SRBOX,18,1,2,1,counterBalance1,22,p,y,y,SRBOX,3000,350245,347245,,0,0,Procedure1,,,list1,pælpəb,sw,cvc,pal,n,0,0.5,0.075757576,0.356294998,-356.294998,-356.294998,-356.294998
81,1,9/23/19,,15:16:38,3.0.3.43,SRBOX,SRBOX,18,1,2,1,counterBalance1,23,ch,n,y,SRBOX,3000,351431,350328,1,1097,351425,Procedure1,SRBOX,./recording/81_pɛntʃɔɪb.wav,list1,pɛntʃɔɪb,ss,cvc,pen,y,1,0.5,0.681818182,0.409303163,687.696837,687.696837,687.696837
81,1,9/23/19,,15:16:38,3.0.3.43,SRBOX,SRBOX,18,1,2,1,counterBalance1,25,v,n,y,SRBOX,3000,360745,357745,,0,0,Procedure1,,,list1,sɛɫvən,sw,cvc,sell,n,0,0.5,0.439393939,0.419183035,-419.183035,-419.183035,-419.183035
81,1,9/23/19,,15:16:38,3.0.3.43,SRBOX,SRBOX,18,1,2,1,counterBalance1,26,th,n,y,SRBOX,3000,363845,360845,,0,0,Procedure1,,,list1,tɛlθəm,sw,cvc,tell,n,0,0.5,0.409090909,0.421384398,-421.384398,-421.384398,-421.384398
81,1,9/23/19,,15:16:38,3.0.3.43,SRBOX,SRBOX,18,1,2,1,counterBalance1,27,ch,n,y,SRBOX,3000,365041,363928,1,1113,365041,Procedure1,SRBOX,./recording/81_fʌntʃeɪθ.wav,list1,fʌntʃeɪθ,ss,cvc,fun,y,1,0.5,0.712121212,0.413374576,699.625424,699.625424,699.625424
81,1,9/23/19,,15:16:38,3.0.3.43,SRBOX,SRBOX,18,1,2,1,counterBalance1,29,dz,n,y,SRBOX,3000,374345,371345,,0,0,Procedure1,,,list1,dʌnʤəb,sw,cvc,done,n,0,0.5,0.424242424,0.30623749,-306.23749,-306.23749,-306.23749
81,1,9/23/19,,15:16:38,3.0.3.43,SRBOX,SRBOX,18,1,2,1,counterBalance1,37,th,n,y,SRBOX,3000,398641,397628,1,1007,398635,Procedure1,SRBOX,./recording/81_rʌnθəm.wav,list1,rʌnθəm,sw,cvc,run,y,1,0.5,0.939393939,0.451263769,555.736231,555.736231,555.736231
81,1,9/23/19,,15:16:38,3.0.3.43,SRBOX,SRBOX,18,1,2,1,counterBalance1,38,s,y,y,SRBOX,3000,403348,401862,1,1486,403348,Procedure1,SRBOX,./recording/81_kænsuf.wav,list1,kænsuf,ss,cvc,can,y,1,0.5,0.545454545,0.356400755,1129.599245,1129.599245,1129.599245
81,1,9/23/19,,15:16:38,3.0.3.43,SRBOX,SRBOX,18,1,2,1,counterBalance1,39,p,y,y,SRBOX,3000,407951,406562,1,1379,407941,Procedure1,Keyboard,./recording/81_slæmpoʊʃ.wav,list1,slæmpoʊʃ,ss,cvc,slam,y,1,0.5,0.560606061,0.508322894,870.677106,870.677106,870.677106
81,1,9/23/19,,15:16:38,3.0.3.43,SRBOX,SRBOX,18,1,2,1,counterBalance1,49,k,y,y,SRBOX,3000,443680,442162,1,1517,443679,Procedure1,SRBOX,./recording/81_dʌskəʤ.wav,list1,dʌskəʤ,sw,cvcc,dusk,desk,0,0.5,0.484848485,0.571603642,945.396358,873.4585344,1021.686966
81,1,9/23/19,,15:16:38,3.0.3.43,SRBOX,SRBOX,18,1,2,1,counterBalance1,50,ch,n,y,SRBOX,3000,448040,446895,1,1130,448025,Procedure1,SRBOX,./recording/81_bɹʌntʃəp.wav,list1,bɹʌntʃəp,sw,cvcc,brunch,y,1,0.5,0.272727273,0.354925173,775.074827,775.074827,775.074827
81,1,9/23/19,,15:16:38,3.0.3.43,SRBOX,SRBOX,18,1,2,1,counterBalance1,52,k,y,y,SRBOX,3000,455893,454345,1,1536,455881,Procedure1,SRBOX,./recording/81_dɛskəp.wav,list1,dɛskəp,sw,cvcc,desk,y,1,0.5,0.803030303,0.505215414,1030.784586,1030.784586,1030.784586
81,1,9/23/19,,15:16:38,3.0.3.43,SRBOX,SRBOX,18,1,2,1,counterBalance1,56,k,y,y,SRBOX,3000,472712,469712,,0,0,Procedure1,,,list1,kʌskɪv,ss,cvc,cuss,n,0,0.5,0.136363636,0.440452309,-440.452309,-440.452309,-440.452309
81,1,9/23/19,,15:16:38,3.0.3.43,SRBOX,SRBOX,18,1,2,1,counterBalance1,57,ch,n,y,SRBOX,3000,475812,472812,,0,0,Procedure1,,,list1,fɹɛntʃɔɪb,ss,cvcc,french,n,0,0.5,0.121212121,0.425364063,-425.364063,-425.364063,-425.364063
81,1,9/23/19,,15:16:38,3.0.3.43,SRBOX,SRBOX,18,1,2,1,counterBalance1,58,p,y,y,SRBOX,3000,477420,475895,1,1521,477416,Procedure1,SRBOX,./recording/81_pʌɫpən.wav,list1,pʌɫpən,sw,cvcc,pulp,y,1,0.5,0.651515152,0.421217752,1099.782248,1099.782248,1099.782248
81,1,9/23/19,,15:16:38,3.0.3.43,SRBOX,SRBOX,18,1,2,1,counterBalance1,59,th,n,y,SRBOX,3000,482201,480678,1,1523,482201,Procedure1,Keyboard,./recording/81_stɛpθəm.wav,list1,stɛpθəm,sw,cvc,step,y,1,0.5,0.909090909,0.586941219,936.058781,936.058781,936.058781
81,1,9/23/19,,15:16:38,3.0.3.43,SRBOX,SRBOX,18,1,2,1,counterBalance1,65,k,y,y,SRBOX,3000,501901,500878,1,1011,501889,Procedure1,SRBOX,./recording/81_daɹkəp.wav,list1,daɹkəp,sw,cvc,dark,y,1,0.5,0.878787879,0.483409725,527.590275,527.590275,527.590275
81,1,9/23/19,,15:16:38,3.0.3.43,SRBOX,SRBOX,18,1,2,1,counterBalance1,66,k,y,y,SRBOX,3000,506071,505112,1,958,506070,Procedure1,SRBOX,./recording/81_rɪskɛl.wav,list1,rɪskɛl,ss,cvcc,risk,y,1,0.5,0.787878788,0.441955454,516.044546,516.044546,516.044546
81,1,9/23/19,,15:16:38,3.0.3.43,SRBOX,SRBOX,18,1,2,1,counterBalance1,68,dz,n,y,SRBOX,3000,515378,512378,,0,0,Procedure1,,,list1,ʧɪnʤəp,sw,cvc,chin,n,0,0.5,0.515151515,0.499500178,-499.500178,-499.500178,-499.500178
81,1,9/23/19,,15:16:38,3.0.3.43,SRBOX,SRBOX,18,1,2,1,counterBalance1,72,sh,n,y,SRBOX,3000,526261,524745,1,1504,526249,Procedure1,SRBOX,./recording/81_skɔɹʃɔb.wav,list1,skɔɹʃɔb,ss,cvc,scar,y,1,0.5,0.909090909,0.453051312,1050.948688,1050.948688,1050.948688
81,1,9/23/19,,15:16:38,3.0.3.43,SRBOX,SRBOX,18,1,2,1,counterBalance1,73,ch,n,y,SRBOX,3000,532495,529495,,0,0,Procedure1,,,list1,stɔntʃəθ,sw,cvcc,staunch,n,0,0.5,0.212121212,0.554073654,-554.073654,-554.073654,-554.073654
81,1,9/23/19,,15:16:38,3.0.3.43,SRBOX,SRBOX,18,1,2,1,counterBalance1,77,s,y,y,SRBOX,3000,543450,541845,1,1599,543444,Procedure1,Keyboard,./recording/81_pʌɫsɔm.wav,list1,pʌɫsɔm,ss,cvcc,pulse,pull,0,0.5,0.333333333,0.413295194,1185.704806,873.4585344,791.62936
81,1,9/23/19,,15:16:38,3.0.3.43,SRBOX,SRBOX,18,1,2,1,counterBalance1,79,p,y,y,SRBOX,3000,552745,549745,,0,0,Procedure1,,,list1,skʌmpaʊdʒ,ss,cvc,skum,n,0,0.5,0.333333333,0.604285937,-604.285937,-604.285937,-604.285937
81,1,9/23/19,,15:16:38,3.0.3.43,SRBOX,SRBOX,18,1,2,1,counterBalance1,83,k,y,y,SRBOX,3000,566545,563545,,0,0,Procedure1,,,list1,hʌskəv,sw,cvcc,husk,n,0,0.5,0.515151515,0.603452071,-603.452071,-603.452071,-603.452071
81,1,9/23/19,,15:16:38,3.0.3.43,SRBOX,SRBOX,18,1,2,1,counterBalance1,84,k,y,y,SRBOX,3000,569612,566612,,0,0,Procedure1,,,list1,dʌɫkæθ,ss,cvc,dull,n,0,0.5,0.181818182,0.331808724,-331.808724,-331.808724,-331.808724
81,1,9/23/19,,15:16:38,3.0.3.43,SRBOX,SRBOX,18,1,2,1,counterBalance1,85,dz,n,y,SRBOX,3000,570669,569695,1,974,570669,Procedure1,SRBOX,./recording/81_taʊnʤɔɪt.wav,list1,taʊnʤɔɪt,ss,cvc,town,y,1,0.5,0.803030303,0.449299299,524.700701,524.700701,524.700701
81,1,9/23/19,,15:16:38,3.0.3.43,SRBOX,SRBOX,18,1,2,1,counterBalance1,86,s,y,y,SRBOX,3000,576862,573862,,0,0,Procedure1,,,list1,gʌɫsəm,sw,cvc,gull,y,0,0.5,0.196969697,0.271428355,-271.428355,-271.428355,-271.428355
81,1,9/23/19,,15:16:38,3.0.3.43,SRBOX,SRBOX,18,1,2,1,counterBalance1,87,k,y,y,SRBOX,3000,578121,576962,1,1147,578109,Procedure1,Keyboard,./recording/81_mɪɫkəθ.wav,list1,mɪɫkəθ,sw,cvcc,milk,y,1,0.5,0.939393939,0.445414068,701.585932,701.585932,701.585932
81,1,9/23/19,,15:16:38,3.0.3.43,SRBOX,SRBOX,18,1,2,1,counterBalance1,89,p,y,y,SRBOX,3000,585701,584428,1,1266,585694,Procedure1,SRBOX,./recording/81_lʌmpədʒ.wav,list1,lʌmpədʒ,sw,cvcc,lump,y,1,0.5,0.772727273,0.396427707,869.572293,869.572293,869.572293
81,1,9/23/19,,15:16:38,3.0.3.43,SRBOX,SRBOX,18,1,2,1,counterBalance1,92,th,n,y,SRBOX,3000,598145,595145,,0,0,Procedure1,,,list1,mʌnθəm,sw,cvcc,month,n,0,0.5,0.515151515,0.42644936,-426.44936,-426.44936,-426.44936
81,1,9/23/19,,15:16:38,3.0.3.43,SRBOX,SRBOX,18,1,2,1,counterBalance1,93,k,y,y,SRBOX,3000,599770,598228,1,1537,599765,Procedure1,SRBOX,./recording/81_bʌɫkəθ.wav,list1,bʌɫkəθ,sw,cvcc,bulk,y,1,0.5,0.681818182,0.541645052,995.354948,995.354948,995.354948
81,1,9/23/19,,15:16:38,3.0.3.43,SRBOX,SRBOX,18,1,2,1,counterBalance1,95,k,y,y,SRBOX,3000,607511,606095,1,1414,607509,Procedure1,SRBOX,./recording/81_staɹkəp.wav,list1,staɹkəp,sw,cvc,star,y,1,0.5,0.727272727,0.48584401,928.15599,928.15599,928.15599
81,1,9/23/19,,15:16:38,3.0.3.43,SRBOX,SRBOX,18,1,2,1,counterBalance1,97,k,y,y,SRBOX,3000,616812,613812,,0,0,Procedure1,,,list1,gæŋkəf,sw,cvc,gang,n,0,0.5,0.409090909,0.313871461,-313.871461,-313.871461,-313.871461
81,1,9/23/19,,15:16:38,3.0.3.43,SRBOX,SRBOX,18,1,2,1,counterBalance1,99,ch,n,y,SRBOX,3000,622962,619962,,0,0,Procedure1,,,list1,tʌntʃəp,sw,cvc,ton,n,0,0.5,0.196969697,0.372240634,-372.240634,-372.240634,-372.240634
81,1,9/23/19,,15:16:38,3.0.3.43,SRBOX,SRBOX,18,1,2,1,counterBalance1,100,k,y,y,SRBOX,3000,624525,623045,1,1480,624525,Procedure1,Keyboard,./recording/81_θæŋkuf.wav,list1,θæŋkuf,ss,cvcc,thank,y,1,0.5,0.636363636,0,1480,873.4585344,1480
81,1,9/23/19,,15:16:38,3.0.3.43,SRBOX,SRBOX,18,1,2,1,counterBalance1,101,k,y,y,SRBOX,3000,628931,627762,1,1164,628926,Procedure1,SRBOX,./recording/81_pɹɛskɛp.wav,list1,pɹɛskɛp,ss,cvc,press,y,1,0.5,0.636363636,0.478091729,685.908271,685.908271,685.908271
81,1,9/23/19,,15:16:38,3.0.3.43,SRBOX,SRBOX,18,1,2,1,counterBalance1,104,dz,n,y,SRBOX,3000,640049,638312,1,1727,640039,Procedure1,SRBOX,./recording/81_kɹɪnʤeɪp.wav,list1,kɹɪnʤeɪp,ss,cvcc,cringe,y,1,0.5,0.681818182,0.52148157,1205.51843,1205.51843,1205.51843
81,1,9/23/19,,15:16:38,3.0.3.43,SRBOX,SRBOX,18,1,2,1,counterBalance1,105,s,y,y,SRBOX,3000,644459,643295,1,1149,644444,Procedure1,Keyboard,./recording/81_ɹɪnsəf.wav,list1,ɹɪnsəf,sw,cvcc,rinse,y,1,0.5,0.606060606,0.465474253,683.525747,683.525747,683.525747
81,1,9/23/19,,15:16:38,3.0.3.43,SRBOX,SRBOX,18,1,2,1,counterBalance1,112,dz,n,y,SRBOX,3000,667030,666178,1,852,667030,Procedure1,SRBOX,./recording/81_pɪnʤəp.wav,list1,pɪnʤəp,sw,cvc,pin,y,1,0.5,0.712121212,0.381340246,470.659754,470.659754,470.659754
81,1,9/23/19,,15:16:38,3.0.3.43,SRBOX,SRBOX,18,1,2,1,counterBalance1,115,k,y,y,SRBOX,3000,679428,676428,,0,0,Procedure1,,,list1,tæskɛθ,ss,cvcc,task,n,0,0.5,0.833333333,0.525337475,-525.337475,-525.337475,-525.337475
81,1,9/23/19,,15:16:38,3.0.3.43,SRBOX,SRBOX,18,1,2,1,counterBalance1,119,k,y,y,SRBOX,3000,693128,690128,,0,0,Procedure1,,,list1,fʌskəʤ,sw,cvc,fuss,n,0,0.5,0.424242424,0.463196101,-463.196101,-463.196101,-463.196101
81,1,9/23/19,,15:16:38,3.0.3.43,SRBOX,SRBOX,18,1,2,1,counterBalance1,121,p,y,y,SRBOX,3000,699312,696312,,0,0,Procedure1,,,list1,pʌmpaʊdʒ,ss,cvcc,pump,n,0,0.5,0.636363636,0.448161285,-448.161285,-448.161285,-448.161285
81,1,9/23/19,,15:16:38,3.0.3.43,SRBOX,SRBOX,18,1,2,1,counterBalance1,123,sh,n,y,SRBOX,3000,705478,702478,,0,0,Procedure1,,,list1,hɔɹʃəb,sw,cvcc,harsh,n,0,0.5,0.575757576,0.463977829,-463.977829,-463.977829,-463.977829
81,1,9/23/19,,15:16:38,3.0.3.43,SRBOX,SRBOX,18,1,2,1,counterBalance1,125,k,y,y,SRBOX,3000,710397,708662,1,1734,710396,Procedure1,Keyboard,./recording/81_glæskɛθ.wav,list1,glæskɛθ,ss,cvc,glass,y,1,0.5,0.893939394,0.630500926,1103.499074,1103.499074,1103.499074
81,1,9/23/19,,15:16:38,3.0.3.43,SRBOX,SRBOX,18,1,2,1,counterBalance1,126,dz,n,y,SRBOX,3000,714780,713612,1,1158,714770,Procedure1,Keyboard,./recording/81_lʌndʒeɪb.wav,list1,lʌndʒeɪb,ss,cvcc,lunge,y,1,0.5,0.621212121,0.457308404,700.691596,700.691596,700.691596
81,1,9/23/19,,15:16:38,3.0.3.43,SRBOX,SRBOX,18,1,2,1,counterBalance1,128,p,y,y,SRBOX,3000,724095,721095,,0,0,Procedure1,,,list1,tʃæmpoʊʃ,ss,cvcc,champ,n,0,0.5,0.5,0.598037684,-598.037684,-598.037684,-598.037684
81,1,9/23/19,,15:16:38,3.0.3.43,SRBOX,SRBOX,18,1,2,1,counterBalance1,129,ch,n,y,SRBOX,3000,727195,724195,,0,0,Procedure1,,,list1,plæntʃɛb,ss,cvcc,plant,n,0,0.5,0.318181818,0.491713802,-491.713802,-491.713802,-491.713802
81,1,9/23/19,,15:16:38,3.0.3.43,SRBOX,SRBOX,18,1,2,1,counterBalance1,130,k,y,y,SRBOX,3000,728829,727295,1,1534,728829,Procedure1,SRBOX,./recording/81_tɹʌŋkəm.wav,list1,tɹʌŋkəm,sw,cvcc,trunk,y,1,0.5,0.757575758,0.446801259,1087.198741,1087.198741,1087.198741
81,1,9/23/19,,15:16:38,3.0.3.43,SRBOX,SRBOX,18,1,2,1,counterBalance1,131,ch,n,y,SRBOX,3000,733041,732062,1,978,733040,Procedure1,SRBOX,./recording/81_gɔntʃeθ.wav,list1,gɔntʃeθ,ss,cvc,gone,y,1,0.5,0.575757576,0.399532384,578.467616,578.467616,578.467616
81,1,9/23/19,,15:16:38,3.0.3.43,SRBOX,SRBOX,18,1,2,1,counterBalance1,133,k,y,y,SRBOX,3000,740639,739312,1,1323,740635,Procedure1,SRBOX,./recording/81_gæskəʤ.wav,list1,gæskəʤ,sw,cvc,gas,y,1,0.5,0.848484848,0.385228403,937.771597,937.771597,937.771597
81,1,9/23/19,,15:16:38,3.0.3.43,SRBOX,SRBOX,18,1,2,1,counterBalance1,137,k,y,y,SRBOX,3000,756128,753128,,0,0,Procedure1,,,list1,fɪɫkəθ,sw,cvc,fill,n,0,0.5,0.318181818,0.379301806,-379.301806,-379.301806,-379.301806
81,1,9/23/19,,15:16:38,3.0.3.43,SRBOX,SRBOX,18,1,2,1,counterBalance1,139,p,y,y,SRBOX,3000,760805,759295,1,1499,760794,Procedure1,SRBOX,./recording/81_skʌɫpən.wav,list1,skʌɫpən,sw,cvc,skull,skulpt,0,0.5,0.5,0.438906803,1060.093197,803.8312168,1018.034966
81,1,9/23/19,,15:16:38,3.0.3.43,SRBOX,SRBOX,18,1,2,1,counterBalance1,147,th,n,y,SRBOX,3000,789812,786812,,0,0,Procedure1,,,list1,stɛlθaum,ss,cvcc,stealth,n,0,0.5,0.5,0.555694706,-555.694706,-555.694706,-555.694706
81,1,9/23/19,,15:16:38,3.0.3.43,SRBOX,SRBOX,18,1,2,1,counterBalance1,151,th,n,y,SRBOX,3000,802178,799178,,0,0,Procedure1,,,list1,fɪfθaʊm,ss,cvcc,fifth,n,0,0.5,0.560606061,0.527940664,-527.940664,-527.940664,-527.940664
81,1,9/23/19,,15:16:38,3.0.3.43,SRBOX,SRBOX,18,1,2,1,counterBalance1,153,th,n,y,SRBOX,3000,806411,805362,1,1045,806407,Procedure1,SRBOX,./recording/81_kɪdθum.wav,list1,kɪdθum,ss,cvc,kid,y,1,0.5,0.863636364,0.395836814,649.163186,649.163186,649.163186
81,1,9/23/19,,15:16:38,3.0.3.43,SRBOX,SRBOX,18,1,2,1,counterBalance1,154,dz,n,y,SRBOX,3000,810641,809628,1,1001,810629,Procedure1,SRBOX,./recording/81_gɹʌnʤəm.wav,list1,gɹʌnʤəm,sw,cvcc,grunge,y,1,0.5,0.454545455,0.396664719,604.335281,604.335281,604.335281
81,1,9/23/19,,15:16:38,3.0.3.43,SRBOX,SRBOX,18,1,2,1,counterBalance1,155,p,y,y,SRBOX,3000,816845,813845,,0,0,Procedure1,,,list1,nʌmpædʒ,ss,cvc,numb,n,0,0.5,0.53030303,0.498357651,-498.357651,-498.357651,-498.357651
81,1,9/23/19,,15:16:38,3.0.3.43,SRBOX,SRBOX,18,1,2,1,counterBalance1,158,k,y,y,SRBOX,3000,826145,823145,,0,0,Procedure1,,,list1,plʌskiv,ss,cvc,plus,n,0,0.5,0.666666667,0.602286633,-602.286633,-602.286633,-602.286633
81,1,9/23/19,,15:16:38,3.0.3.43,SRBOX,SRBOX,18,1,2,1,counterBalance1,159,k,y,y,SRBOX,3000,827359,826245,1,1112,827357,Procedure1,Keyboard,./recording/81_kɪskɛl.wav,list1,kɪskɛl,ss,cvc,kiss,y,1,0.5,0.909090909,0.41178617,700.21383,700.21383,700.21383
81,1,9/23/19,,15:16:38,3.0.3.43,SRBOX,SRBOX,18,1,2,1,counterBalance1,160,dz,n,y,SRBOX,3000,833612,830612,,0,0,Procedure1,,,list1,bʌnʤam,ss,cvc,bun,n,0,0.5,0.196969697,0.533254863,-533.254863,-533.254863,-533.254863
